"","Subject","Age","SessionDate","SessionTime","Sex","Trial","Domain","ISIDur","ListLength","SetSize","VerbProbePos","presented","cue","probeDomain","probeOrder","response.ACC","response.CRESP","response.RESP","response.RT"
"1",1,"18;11","10-24-2006","10:55:22","female",13,"within",3000,0,3,NA,"VisVis","Second","Vis","Second",1,"y","y",1302
"2",1,"18;11","10-24-2006","10:55:22","female",14,"cross",3000,5,3,3,"VisVerb","Second","Verb","Second",1,"n","n",1752
"3",1,"18;11","10-24-2006","10:55:22","female",15,"single",6000,5,0,1,"Verb",NA,"Verb",NA,1,"y","y",1634
"4",1,"18;11","10-24-2006","10:55:22","female",16,"cross",3000,5,3,NA,"VerbVis","Both","Vis","Second",1,"y","y",1690
"5",1,"18;11","10-24-2006","10:55:22","female",17,"cross",3000,5,3,2,"VisVerb","Second","Verb","Second",1,"y","y",1547
"6",1,"18;11","10-24-2006","10:55:22","female",18,"single",6000,5,0,4,"Verb",NA,"Verb",NA,1,"n","n",2171
"7",1,"18;11","10-24-2006","10:55:22","female",19,"cross",3000,5,3,1,"VerbVis","Both","Verb","First",0,"n","y",2259
"8",1,"18;11","10-24-2006","10:55:22","female",20,"within",3000,0,3,NA,"VisVis","Both","Vis","Second",0,"y","n",2205
"9",1,"18;11","10-24-2006","10:55:22","female",21,"cross",3000,5,3,NA,"VisVerb","Both","Vis","First",1,"n","n",3079
"10",1,"18;11","10-24-2006","10:55:22","female",22,"cross",3000,5,3,NA,"VisVerb","First","Vis","First",1,"y","y",3087
"11",1,"18;11","10-24-2006","10:55:22","female",23,"within",3000,0,3,NA,"VisVis","Both","Vis","First",0,"n","y",2851
"12",1,"18;11","10-24-2006","10:55:22","female",24,"cross",3000,5,3,2,"VerbVis","First","Verb","First",1,"y","y",1716
"13",1,"18;11","10-24-2006","10:55:22","female",25,"single",3000,0,3,NA,"Vis",NA,"Vis",NA,1,"y","y",1837
"14",1,"18;11","10-24-2006","10:55:22","female",26,"single",6000,0,3,NA,"Vis",NA,"Vis",NA,0,"n","y",2771
"15",1,"18;11","10-24-2006","10:55:22","female",27,"within",3000,5,0,2,"VerbVerb","Both","Verb","Second",1,"y","y",2212
"16",1,"18;11","10-24-2006","10:55:22","female",28,"within",3000,5,0,3,"VerbVerb","Both","Verb","First",1,"n","n",2945
"17",1,"18;11","10-24-2006","10:55:22","female",29,"single",3000,5,0,2,"Verb",NA,"Verb",NA,1,"n","n",1789
"18",1,"18;11","10-24-2006","10:55:22","female",30,"cross",3000,5,3,3,"VisVerb","Both","Verb","Second",1,"n","n",1816
"19",1,"18;11","10-24-2006","10:55:22","female",31,"cross",3000,5,3,1,"VisVerb","Both","Verb","Second",1,"y","y",1626
"20",1,"18;11","10-24-2006","10:55:22","female",32,"cross",3000,5,3,3,"VerbVis","First","Verb","First",1,"n","n",1959
"21",1,"18;11","10-24-2006","10:55:22","female",33,"cross",3000,5,3,NA,"VerbVis","Second","Vis","Second",0,"n","y",2619
"22",1,"18;11","10-24-2006","10:55:22","female",34,"single",4000,5,0,4,"Verb",NA,"Verb",NA,1,"n","n",2435
"23",1,"18;11","10-24-2006","10:55:22","female",35,"within",3000,5,0,4,"VerbVerb","Second","Verb","Second",1,"y","y",2381
"24",1,"18;11","10-24-2006","10:55:22","female",36,"within",3000,5,0,4,"VerbVerb","Both","Verb","First",0,"y","n",3337
"25",1,"18;11","10-24-2006","10:55:22","female",37,"within",3000,0,3,NA,"VisVis","Both","Vis","First",1,"y","y",2504
"26",1,"18;11","10-24-2006","10:55:22","female",38,"cross",3000,5,3,2,"VerbVis","Both","Verb","First",1,"y","y",1987
"27",1,"18;11","10-24-2006","10:55:22","female",39,"within",3000,5,0,2,"VerbVerb","Both","Verb","Second",1,"n","n",1971
"28",1,"18;11","10-24-2006","10:55:22","female",40,"cross",3000,5,3,NA,"VerbVis","Both","Vis","Second",0,"n","y",2973
"29",1,"18;11","10-24-2006","10:55:22","female",41,"within",3000,5,0,1,"VerbVerb","First","Verb","First",1,"y","y",1838
"30",1,"18;11","10-24-2006","10:55:22","female",42,"single",4000,5,0,4,"Verb",NA,"Verb",NA,0,"y","n",2693
"31",1,"18;11","10-24-2006","10:55:22","female",43,"single",4000,0,3,NA,"Vis",NA,"Vis",NA,1,"y","y",2809
"32",1,"18;11","10-24-2006","10:55:22","female",44,"single",4000,0,3,NA,"Vis",NA,"Vis",NA,1,"n","n",3231
"33",1,"18;11","10-24-2006","10:55:22","female",45,"within",3000,0,3,NA,"VisVis","First","Vis","First",1,"n","n",2002
"34",1,"18;11","10-24-2006","10:55:22","female",46,"within",3000,0,3,NA,"VisVis","Second","Vis","Second",1,"n","n",1877
"35",1,"18;11","10-24-2006","10:55:22","female",47,"single",6000,0,3,NA,"Vis",NA,"Vis",NA,1,"y","y",1505
"36",1,"18;11","10-24-2006","10:55:22","female",48,"single",3000,5,0,3,"Verb",NA,"Verb",NA,1,"y","y",1907
"37",1,"18;11","10-24-2006","10:55:22","female",49,"cross",3000,5,3,NA,"VisVerb","Both","Vis","First",1,"y","y",2075
"38",1,"18;11","10-24-2006","10:55:22","female",50,"within",3000,0,3,NA,"VisVis","First","Vis","First",1,"y","y",1568
"39",1,"18;11","10-24-2006","10:55:22","female",51,"cross",3000,5,3,NA,"VisVerb","First","Vis","First",0,"n","y",2076
"40",1,"18;11","10-24-2006","10:55:22","female",52,"cross",3000,5,3,NA,"VerbVis","Second","Vis","Second",1,"y","y",1802
"41",1,"18;11","10-24-2006","10:55:22","female",53,"within",3000,0,3,NA,"VisVis","Both","Vis","Second",0,"n","y",3335
"42",1,"18;11","10-24-2006","10:55:22","female",54,"single",3000,0,3,NA,"Vis",NA,"Vis",NA,0,"n","y",1477
"43",1,"18;11","10-24-2006","10:55:22","female",55,"within",3000,5,0,4,"VerbVerb","First","Verb","First",1,"n","n",2287
"44",1,"18;11","10-24-2006","10:55:22","female",56,"within",3000,5,0,5,"VerbVerb","Second","Verb","Second",1,"n","n",1908
"45",1,"18;11","10-24-2006","10:55:22","female",57,"within",3000,0,3,NA,"VisVis","First","Vis","First",0,"n","y",2289
"46",1,"18;11","10-24-2006","10:55:22","female",58,"cross",3000,5,3,NA,"VerbVis","Both","Vis","Second",0,"n","y",3117
"47",1,"18;11","10-24-2006","10:55:22","female",59,"within",3000,0,3,NA,"VisVis","Second","Vis","Second",1,"y","y",6522
"48",1,"18;11","10-24-2006","10:55:22","female",60,"cross",3000,5,3,5,"VisVerb","Second","Verb","Second",1,"n","n",1800
"49",1,"18;11","10-24-2006","10:55:22","female",61,"within",3000,5,0,2,"VerbVerb","First","Verb","First",1,"n","n",1616
"50",1,"18;11","10-24-2006","10:55:22","female",62,"within",3000,5,0,5,"VerbVerb","Both","Verb","Second",1,"y","y",2433
"51",1,"18;11","10-24-2006","10:55:22","female",63,"cross",3000,5,3,NA,"VisVerb","First","Vis","First",1,"y","y",2167
"52",1,"18;11","10-24-2006","10:55:22","female",64,"single",3000,5,0,4,"Verb",NA,"Verb",NA,1,"n","n",1986
"53",1,"18;11","10-24-2006","10:55:22","female",65,"single",4000,5,0,3,"Verb",NA,"Verb",NA,0,"n","y",2084
"54",1,"18;11","10-24-2006","10:55:22","female",66,"within",3000,0,3,NA,"VisVis","Second","Vis","Second",1,"n","n",2262
"55",1,"18;11","10-24-2006","10:55:22","female",67,"within",3000,5,0,1,"VerbVerb","Both","Verb","First",1,"n","n",2402
"56",1,"18;11","10-24-2006","10:55:22","female",68,"cross",3000,5,3,3,"VerbVis","First","Verb","First",0,"y","n",2182
"57",1,"18;11","10-24-2006","10:55:22","female",69,"single",6000,0,3,NA,"Vis",NA,"Vis",NA,1,"y","y",2519
"58",1,"18;11","10-24-2006","10:55:22","female",70,"single",4000,0,3,NA,"Vis",NA,"Vis",NA,1,"y","y",2086
"59",1,"18;11","10-24-2006","10:55:22","female",71,"within",3000,5,0,5,"VerbVerb","Second","Verb","Second",1,"y","y",2194
"60",1,"18;11","10-24-2006","10:55:22","female",72,"single",6000,5,0,1,"Verb",NA,"Verb",NA,1,"y","y",2489
"61",1,"18;11","10-24-2006","10:55:22","female",73,"single",6000,0,3,NA,"Vis",NA,"Vis",NA,1,"n","n",1955
"62",1,"18;11","10-24-2006","10:55:22","female",74,"cross",3000,5,3,1,"VisVerb","Second","Verb","Second",1,"y","y",1640
"63",1,"18;11","10-24-2006","10:55:22","female",75,"single",4000,0,3,NA,"Vis",NA,"Vis",NA,1,"n","n",2045
"64",1,"18;11","10-24-2006","10:55:22","female",76,"single",6000,5,0,1,"Verb",NA,"Verb",NA,1,"n","n",2133
"65",1,"18;11","10-24-2006","10:55:22","female",77,"within",3000,0,3,NA,"VisVis","First","Vis","First",1,"y","y",1464
"66",1,"18;11","10-24-2006","10:55:22","female",78,"single",3000,0,3,NA,"Vis",NA,"Vis",NA,1,"y","y",4785
"67",1,"18;11","10-24-2006","10:55:22","female",79,"within",3000,0,3,NA,"VisVis","Both","Vis","First",0,"y","n",5554
"68",1,"18;11","10-24-2006","10:55:22","female",80,"within",3000,5,0,1,"VerbVerb","Both","Verb","First",1,"y","y",1639
"69",1,"18;11","10-24-2006","10:55:22","female",81,"cross",3000,5,3,NA,"VerbVis","Both","Vis","Second",1,"y","y",1455
"70",1,"18;11","10-24-2006","10:55:22","female",82,"single",4000,5,0,4,"Verb",NA,"Verb",NA,0,"y","n",3748
"71",1,"18;11","10-24-2006","10:55:22","female",83,"within",3000,5,0,5,"VerbVerb","First","Verb","First",1,"y","y",2662
"72",1,"18;11","10-24-2006","10:55:22","female",84,"cross",3000,5,3,3,"VerbVis","Both","Verb","First",0,"y","n",2396
"73",1,"18;11","10-24-2006","10:55:22","female",85,"single",3000,0,3,NA,"Vis",NA,"Vis",NA,1,"n","n",5080
"74",1,"18;11","10-24-2006","10:55:22","female",86,"cross",3000,5,3,2,"VerbVis","First","Verb","First",1,"n","n",2187
"75",1,"18;11","10-24-2006","10:55:22","female",87,"single",3000,5,0,1,"Verb",NA,"Verb",NA,1,"y","y",1708
"76",1,"18;11","10-24-2006","10:55:22","female",88,"within",3000,0,3,NA,"VisVis","Both","Vis","First",1,"n","n",2105
"77",1,"18;11","10-24-2006","10:55:22","female",89,"within",3000,0,3,NA,"VisVis","Both","Vis","Second",1,"n","n",2848
"78",1,"18;11","10-24-2006","10:55:22","female",90,"within",3000,5,0,5,"VerbVerb","Second","Verb","Second",1,"n","n",2278
"79",1,"18;11","10-24-2006","10:55:22","female",91,"cross",3000,5,3,2,"VisVerb","Both","Verb","Second",0,"n","y",5381
"80",1,"18;11","10-24-2006","10:55:22","female",92,"cross",3000,5,3,NA,"VerbVis","Second","Vis","Second",0,"y","n",3402
"81",1,"18;11","10-24-2006","10:55:22","female",93,"cross",3000,5,3,NA,"VisVerb","Both","Vis","First",1,"y","y",1462
"82",1,"18;11","10-24-2006","10:55:22","female",94,"cross",3000,5,3,NA,"VisVerb","First","Vis","First",0,"n","y",1486
"83",1,"18;11","10-24-2006","10:55:22","female",95,"cross",3000,5,3,2,"VerbVis","Both","Verb","First",1,"n","n",1824
"84",1,"18;11","10-24-2006","10:55:22","female",96,"cross",3000,5,3,NA,"VerbVis","Second","Vis","Second",0,"n","y",1831
"85",1,"18;11","10-24-2006","10:55:22","female",97,"cross",3000,5,3,4,"VisVerb","Both","Verb","Second",1,"y","y",3966
"86",1,"18;11","10-24-2006","10:55:22","female",98,"cross",3000,5,3,NA,"VisVerb","Both","Vis","First",0,"n","y",4491
"87",1,"18;11","10-24-2006","10:55:22","female",99,"within",3000,0,3,NA,"VisVis","Both","Vis","Second",0,"y","n",1569
"88",1,"18;11","10-24-2006","10:55:22","female",100,"within",3000,5,0,4,"VerbVerb","Both","Verb","Second",1,"n","n",3591
"89",1,"18;11","10-24-2006","10:55:22","female",101,"single",4000,0,3,NA,"Vis",NA,"Vis",NA,0,"n","y",4611
"90",1,"18;11","10-24-2006","10:55:22","female",102,"cross",3000,5,3,NA,"VisVerb","Both","Vis","First",1,"n","n",1588
"91",1,"18;11","10-24-2006","10:55:22","female",103,"single",3000,5,0,3,"Verb",NA,"Verb",NA,1,"n","n",1650
"92",1,"18;11","10-24-2006","10:55:22","female",104,"within",3000,0,3,NA,"VisVis","Both","Vis","First",1,"n","n",2414
"93",1,"18;11","10-24-2006","10:55:22","female",105,"cross",3000,5,3,3,"VisVerb","Both","Verb","Second",1,"y","y",2524
"94",1,"18;11","10-24-2006","10:55:22","female",106,"cross",3000,5,3,5,"VisVerb","Both","Verb","Second",1,"n","n",1720
"95",1,"18;11","10-24-2006","10:55:22","female",107,"single",3000,5,0,1,"Verb",NA,"Verb",NA,1,"y","y",1933
"96",1,"18;11","10-24-2006","10:55:22","female",108,"within",3000,5,0,2,"VerbVerb","Both","Verb","First",1,"y","y",3110
"97",1,"18;11","10-24-2006","10:55:22","female",109,"single",6000,5,0,2,"Verb",NA,"Verb",NA,1,"n","n",2614
"98",1,"18;11","10-24-2006","10:55:22","female",110,"single",6000,0,3,NA,"Vis",NA,"Vis",NA,0,"y","n",1798
"99",1,"18;11","10-24-2006","10:55:22","female",111,"within",3000,0,3,NA,"VisVis","First","Vis","First",0,"y","n",2058
"100",1,"18;11","10-24-2006","10:55:22","female",112,"cross",3000,5,3,4,"VerbVis","First","Verb","First",1,"n","n",1874
"101",1,"18;11","10-24-2006","10:55:22","female",113,"cross",3000,5,3,5,"VerbVis","First","Verb","First",1,"y","y",1953
"102",1,"18;11","10-24-2006","10:55:22","female",114,"single",4000,5,0,5,"Verb",NA,"Verb",NA,1,"y","y",2013
"103",1,"18;11","10-24-2006","10:55:22","female",115,"within",3000,5,0,3,"VerbVerb","Both","Verb","Second",0,"y","n",4032
"104",1,"18;11","10-24-2006","10:55:22","female",116,"within",3000,5,0,5,"VerbVerb","Second","Verb","Second",1,"y","y",2134
"105",1,"18;11","10-24-2006","10:55:22","female",117,"cross",3000,5,3,NA,"VerbVis","Second","Vis","Second",1,"y","y",6352
"106",1,"18;11","10-24-2006","10:55:22","female",118,"cross",3000,5,3,NA,"VerbVis","Both","Vis","Second",0,"n","y",2521
"107",1,"18;11","10-24-2006","10:55:22","female",119,"single",6000,5,0,1,"Verb",NA,"Verb",NA,1,"y","y",1861
"108",1,"18;11","10-24-2006","10:55:22","female",120,"within",3000,0,3,NA,"VisVis","Both","Vis","Second",0,"y","n",2236
"109",1,"18;11","10-24-2006","10:55:22","female",121,"cross",3000,5,3,NA,"VerbVis","Second","Vis","Second",1,"n","n",1847
"110",1,"18;11","10-24-2006","10:55:22","female",122,"within",3000,0,3,NA,"VisVis","First","Vis","First",1,"n","n",5585
"111",1,"18;11","10-24-2006","10:55:22","female",123,"single",3000,0,3,NA,"Vis",NA,"Vis",NA,1,"y","y",1844
"112",1,"18;11","10-24-2006","10:55:22","female",124,"within",3000,0,3,NA,"VisVis","Second","Vis","Second",0,"n","y",3076
"113",1,"18;11","10-24-2006","10:55:22","female",125,"cross",3000,5,3,NA,"VerbVis","Both","Vis","Second",1,"y","y",2238
"114",1,"18;11","10-24-2006","10:55:22","female",126,"cross",3000,5,3,NA,"VisVerb","First","Vis","First",1,"y","y",2507
"115",1,"18;11","10-24-2006","10:55:22","female",127,"single",4000,5,0,3,"Verb",NA,"Verb",NA,1,"n","n",2135
"116",1,"18;11","10-24-2006","10:55:22","female",128,"single",6000,0,3,NA,"Vis",NA,"Vis",NA,1,"n","n",4636
"117",1,"18;11","10-24-2006","10:55:22","female",129,"within",3000,5,0,2,"VerbVerb","First","Verb","First",0,"y","n",2407
"118",1,"18;11","10-24-2006","10:55:22","female",130,"cross",3000,5,3,NA,"VisVerb","Both","Vis","First",1,"y","y",1626
"119",1,"18;11","10-24-2006","10:55:22","female",131,"single",3000,0,3,NA,"Vis",NA,"Vis",NA,1,"n","n",1924
"120",1,"18;11","10-24-2006","10:55:22","female",132,"within",3000,0,3,NA,"VisVis","Both","Vis","Second",0,"n","y",2303
"121",1,"18;11","10-24-2006","10:55:22","female",133,"cross",3000,5,3,NA,"VisVerb","First","Vis","First",1,"n","n",2230
"122",1,"18;11","10-24-2006","10:55:22","female",134,"within",3000,5,0,4,"VerbVerb","Both","Verb","Second",1,"n","n",1715
"123",1,"18;11","10-24-2006","10:55:22","female",135,"within",3000,0,3,NA,"VisVis","Second","Vis","Second",0,"y","n",2206
"124",1,"18;11","10-24-2006","10:55:22","female",136,"within",3000,5,0,1,"VerbVerb","First","Verb","First",0,"n","y",1552
"125",1,"18;11","10-24-2006","10:55:22","female",137,"within",3000,5,0,1,"VerbVerb","Both","Verb","First",0,"n","y",2151
"126",1,"18;11","10-24-2006","10:55:22","female",138,"cross",3000,5,3,4,"VerbVis","Both","Verb","First",1,"n","n",1937
"127",1,"18;11","10-24-2006","10:55:22","female",139,"cross",3000,5,3,3,"VerbVis","Both","Verb","First",1,"y","y",2803
"128",1,"18;11","10-24-2006","10:55:22","female",140,"cross",3000,5,3,4,"VisVerb","Second","Verb","Second",1,"n","n",1578
"129",1,"18;11","10-24-2006","10:55:22","female",141,"within",3000,0,3,NA,"VisVis","Both","Vis","First",0,"y","n",1892
"130",1,"18;11","10-24-2006","10:55:22","female",142,"within",3000,5,0,5,"VerbVerb","Second","Verb","Second",1,"n","n",1900
"131",1,"18;11","10-24-2006","10:55:22","female",143,"cross",3000,5,3,4,"VisVerb","Second","Verb","Second",0,"y","n",2978
"132",1,"18;11","10-24-2006","10:55:22","female",144,"single",4000,0,3,NA,"Vis",NA,"Vis",NA,1,"y","y",1781
"133",1,"18;11","10-24-2006","10:55:22","female",145,"within",3000,0,3,NA,"VisVis","Both","Vis","First",1,"n","n",2567
"134",1,"18;11","10-24-2006","10:55:22","female",146,"single",4000,0,3,NA,"Vis",NA,"Vis",NA,0,"n","y",3328
"135",1,"18;11","10-24-2006","10:55:22","female",147,"cross",3000,5,3,5,"VisVerb","Both","Verb","Second",1,"y","y",1454
"136",1,"18;11","10-24-2006","10:55:22","female",148,"within",3000,5,0,4,"VerbVerb","Both","Verb","Second",1,"n","n",2273
"137",1,"18;11","10-24-2006","10:55:22","female",149,"cross",3000,5,3,1,"VerbVis","First","Verb","First",1,"y","y",1624
"138",1,"18;11","10-24-2006","10:55:22","female",150,"single",3000,5,0,1,"Verb",NA,"Verb",NA,1,"y","y",1548
"139",1,"18;11","10-24-2006","10:55:22","female",151,"cross",3000,5,3,NA,"VerbVis","Second","Vis","Second",1,"n","n",1395
"140",1,"18;11","10-24-2006","10:55:22","female",152,"single",6000,5,0,4,"Verb",NA,"Verb",NA,1,"y","y",2204
"141",1,"18;11","10-24-2006","10:55:22","female",153,"single",3000,0,3,NA,"Vis",NA,"Vis",NA,1,"y","y",1625
"142",1,"18;11","10-24-2006","10:55:22","female",154,"within",3000,0,3,NA,"VisVis","First","Vis","First",1,"n","n",1427
"143",1,"18;11","10-24-2006","10:55:22","female",155,"single",6000,0,3,NA,"Vis",NA,"Vis",NA,1,"n","n",2082
"144",1,"18;11","10-24-2006","10:55:22","female",156,"single",6000,5,0,5,"Verb",NA,"Verb",NA,1,"n","n",2110
"145",1,"18;11","10-24-2006","10:55:22","female",157,"cross",3000,5,3,3,"VisVerb","Second","Verb","Second",1,"y","y",2084
"146",1,"18;11","10-24-2006","10:55:22","female",158,"within",3000,0,3,NA,"VisVis","Second","Vis","Second",1,"y","y",2215
"147",1,"18;11","10-24-2006","10:55:22","female",159,"cross",3000,5,3,5,"VisVerb","Both","Verb","Second",1,"n","n",2010
"148",1,"18;11","10-24-2006","10:55:22","female",160,"within",3000,5,0,5,"VerbVerb","Both","Verb","First",1,"y","y",2849
"149",1,"18;11","10-24-2006","10:55:22","female",161,"single",4000,5,0,2,"Verb",NA,"Verb",NA,0,"n","y",4686
"150",1,"18;11","10-24-2006","10:55:22","female",162,"within",3000,0,3,NA,"VisVis","Both","Vis","First",1,"y","y",2378
"151",1,"18;11","10-24-2006","10:55:22","female",163,"cross",3000,5,3,5,"VerbVis","First","Verb","First",1,"n","n",1767
"152",1,"18;11","10-24-2006","10:55:22","female",164,"within",3000,5,0,4,"VerbVerb","Both","Verb","Second",1,"y","y",2061
"153",1,"18;11","10-24-2006","10:55:22","female",165,"cross",3000,5,3,NA,"VisVerb","First","Vis","First",1,"y","y",1849
"154",1,"18;11","10-24-2006","10:55:22","female",166,"within",3000,5,0,5,"VerbVerb","Second","Verb","Second",1,"n","n",1827
"155",1,"18;11","10-24-2006","10:55:22","female",167,"cross",3000,5,3,NA,"VerbVis","Second","Vis","Second",1,"y","y",1915
"156",1,"18;11","10-24-2006","10:55:22","female",168,"cross",3000,5,3,3,"VisVerb","Second","Verb","Second",1,"n","n",11663
"157",1,"18;11","10-24-2006","10:55:22","female",169,"within",3000,0,3,NA,"VisVis","First","Vis","First",0,"y","n",1695
"158",1,"18;11","10-24-2006","10:55:22","female",170,"within",3000,0,3,NA,"VisVis","Both","Vis","Second",0,"y","n",1338
"159",1,"18;11","10-24-2006","10:55:22","female",171,"cross",3000,5,3,NA,"VerbVis","Both","Vis","Second",1,"y","y",2059
"160",1,"18;11","10-24-2006","10:55:22","female",172,"cross",3000,5,3,NA,"VerbVis","Both","Vis","Second",1,"n","n",3579
"161",1,"18;11","10-24-2006","10:55:22","female",173,"within",3000,5,0,3,"VerbVerb","First","Verb","First",1,"n","n",2064
"162",1,"18;11","10-24-2006","10:55:22","female",174,"cross",3000,5,3,NA,"VisVerb","Both","Vis","First",1,"n","n",1988
"163",1,"18;11","10-24-2006","10:55:22","female",175,"single",6000,0,3,NA,"Vis",NA,"Vis",NA,0,"y","n",3085
"164",1,"18;11","10-24-2006","10:55:22","female",176,"within",3000,0,3,NA,"VisVis","Both","Vis","Second",0,"n","y",1284
"165",1,"18;11","10-24-2006","10:55:22","female",177,"cross",3000,5,3,4,"VerbVis","Both","Verb","First",1,"n","n",2434
"166",1,"18;11","10-24-2006","10:55:22","female",178,"within",3000,5,0,1,"VerbVerb","First","Verb","First",0,"y","n",2612
"167",1,"18;11","10-24-2006","10:55:22","female",179,"cross",3000,5,3,2,"VerbVis","Both","Verb","First",1,"y","y",1618
"168",1,"18;11","10-24-2006","10:55:22","female",180,"cross",3000,5,3,NA,"VisVerb","First","Vis","First",0,"n","y",3407
"169",1,"18;11","10-24-2006","10:55:22","female",181,"within",3000,5,0,2,"VerbVerb","Second","Verb","Second",1,"y","y",1357
"170",1,"18;11","10-24-2006","10:55:22","female",182,"within",3000,5,0,2,"VerbVerb","Both","Verb","First",1,"n","n",2106
"171",1,"18;11","10-24-2006","10:55:22","female",183,"within",3000,0,3,NA,"VisVis","Second","Vis","Second",1,"n","n",2023
"172",1,"18;11","10-24-2006","10:55:22","female",184,"single",3000,0,3,NA,"Vis",NA,"Vis",NA,1,"n","n",1481
"173",1,"18;11","10-24-2006","10:55:22","female",185,"single",4000,5,0,3,"Verb",NA,"Verb",NA,1,"y","y",2721
"174",1,"18;11","10-24-2006","10:55:22","female",186,"cross",3000,5,3,NA,"VisVerb","Both","Vis","First",0,"y","n",5970
"175",1,"18;11","10-24-2006","10:55:22","female",187,"single",4000,0,3,NA,"Vis",NA,"Vis",NA,1,"y","y",2314
"176",1,"18;11","10-24-2006","10:55:22","female",188,"single",3000,5,0,5,"Verb",NA,"Verb",NA,1,"n","n",1923
"177",2,"21;5","10-25-2006","12:54:40","male",13,"single",4000,0,3,NA,"Vis",NA,"Vis",NA,1,"n","n",1565
"178",2,"21;5","10-25-2006","12:54:40","male",14,"within",3000,0,3,NA,"VisVis","Both","Vis","Second",1,"y","y",776
"179",2,"21;5","10-25-2006","12:54:40","male",15,"single",6000,0,3,NA,"Vis",NA,"Vis",NA,0,"n","y",1347
"180",2,"21;5","10-25-2006","12:54:40","male",16,"cross",3000,5,3,4,"VerbVis","Both","Verb","First",1,"n","n",1572
"181",2,"21;5","10-25-2006","12:54:40","male",17,"within",3000,0,3,NA,"VisVis","First","Vis","First",1,"y","y",1432
"182",2,"21;5","10-25-2006","12:54:40","male",18,"within",3000,5,0,4,"VerbVerb","Both","Verb","Second",1,"n","n",1119
"183",2,"21;5","10-25-2006","12:54:40","male",19,"within",3000,5,0,1,"VerbVerb","First","Verb","First",0,"n","y",1025
"184",2,"21;5","10-25-2006","12:54:40","male",20,"single",6000,0,3,NA,"Vis",NA,"Vis",NA,1,"y","y",1047
"185",2,"21;5","10-25-2006","12:54:40","male",21,"cross",3000,5,3,NA,"VerbVis","Second","Vis","Second",1,"n","n",1075
"186",2,"21;5","10-25-2006","12:54:40","male",22,"within",3000,5,0,5,"VerbVerb","Second","Verb","Second",1,"y","y",1076
"187",2,"21;5","10-25-2006","12:54:40","male",23,"single",3000,0,3,NA,"Vis",NA,"Vis",NA,1,"n","n",999
"188",2,"21;5","10-25-2006","12:54:40","male",24,"within",3000,5,0,1,"VerbVerb","Both","Verb","First",1,"y","y",836
"189",2,"21;5","10-25-2006","12:54:40","male",25,"cross",3000,5,3,NA,"VisVerb","Both","Vis","First",1,"y","y",1012
"190",2,"21;5","10-25-2006","12:54:40","male",26,"single",6000,5,0,5,"Verb",NA,"Verb",NA,1,"n","n",1213
"191",2,"21;5","10-25-2006","12:54:40","male",27,"cross",3000,5,3,5,"VerbVis","First","Verb","First",1,"n","n",1238
"192",2,"21;5","10-25-2006","12:54:40","male",28,"cross",3000,5,3,NA,"VerbVis","Both","Vis","Second",1,"y","y",1299
"193",2,"21;5","10-25-2006","12:54:40","male",29,"cross",3000,5,3,5,"VisVerb","Both","Verb","Second",1,"y","y",1283
"194",2,"21;5","10-25-2006","12:54:40","male",30,"within",3000,0,3,NA,"VisVis","First","Vis","First",0,"n","y",1144
"195",2,"21;5","10-25-2006","12:54:40","male",31,"cross",3000,5,3,2,"VisVerb","Second","Verb","Second",1,"y","y",936
"196",2,"21;5","10-25-2006","12:54:40","male",32,"single",4000,5,0,4,"Verb",NA,"Verb",NA,0,"y","n",1117
"197",2,"21;5","10-25-2006","12:54:40","male",33,"within",3000,0,3,NA,"VisVis","Both","Vis","Second",0,"n","y",904
"198",2,"21;5","10-25-2006","12:54:40","male",34,"cross",3000,5,3,NA,"VerbVis","Both","Vis","Second",1,"n","n",1312
"199",2,"21;5","10-25-2006","12:54:40","male",35,"within",3000,5,0,3,"VerbVerb","Both","Verb","Second",1,"y","y",1275
"200",2,"21;5","10-25-2006","12:54:40","male",36,"single",3000,5,0,4,"Verb",NA,"Verb",NA,1,"n","n",896
"201",2,"21;5","10-25-2006","12:54:40","male",37,"within",3000,5,0,5,"VerbVerb","First","Verb","First",1,"y","y",1208
"202",2,"21;5","10-25-2006","12:54:40","male",38,"within",3000,0,3,NA,"VisVis","Both","Vis","First",1,"y","y",1139
"203",2,"21;5","10-25-2006","12:54:40","male",39,"within",3000,0,3,NA,"VisVis","Second","Vis","Second",0,"y","n",1246
"204",2,"21;5","10-25-2006","12:54:40","male",40,"cross",3000,5,3,4,"VerbVis","Both","Verb","First",1,"y","y",1167
"205",2,"21;5","10-25-2006","12:54:40","male",41,"single",4000,0,3,NA,"Vis",NA,"Vis",NA,0,"y","n",1586
"206",2,"21;5","10-25-2006","12:54:40","male",42,"cross",3000,5,3,1,"VisVerb","Second","Verb","Second",1,"n","n",961
"207",2,"21;5","10-25-2006","12:54:40","male",43,"within",3000,0,3,NA,"VisVis","Both","Vis","First",1,"n","n",1106
"208",2,"21;5","10-25-2006","12:54:40","male",44,"cross",3000,5,3,2,"VerbVis","First","Verb","First",1,"y","y",1044
"209",2,"21;5","10-25-2006","12:54:40","male",45,"cross",3000,5,3,NA,"VisVerb","First","Vis","First",1,"n","n",926
"210",2,"21;5","10-25-2006","12:54:40","male",46,"within",3000,5,0,3,"VerbVerb","Second","Verb","Second",1,"n","n",1267
"211",2,"21;5","10-25-2006","12:54:40","male",47,"single",3000,0,3,NA,"Vis",NA,"Vis",NA,0,"y","n",1139
"212",2,"21;5","10-25-2006","12:54:40","male",48,"cross",3000,5,3,4,"VisVerb","Both","Verb","Second",1,"n","n",1233
"213",2,"21;5","10-25-2006","12:54:40","male",49,"single",6000,5,0,4,"Verb",NA,"Verb",NA,0,"y","n",1262
"214",2,"21;5","10-25-2006","12:54:40","male",50,"single",3000,5,0,4,"Verb",NA,"Verb",NA,1,"y","y",1287
"215",2,"21;5","10-25-2006","12:54:40","male",51,"within",3000,0,3,NA,"VisVis","Second","Vis","Second",1,"n","n",1023
"216",2,"21;5","10-25-2006","12:54:40","male",52,"single",4000,5,0,4,"Verb",NA,"Verb",NA,1,"n","n",2085
"217",2,"21;5","10-25-2006","12:54:40","male",53,"cross",3000,5,3,NA,"VerbVis","Second","Vis","Second",0,"y","n",1721
"218",2,"21;5","10-25-2006","12:54:40","male",54,"within",3000,5,0,3,"VerbVerb","Both","Verb","First",1,"n","n",1354
"219",2,"21;5","10-25-2006","12:54:40","male",55,"cross",3000,5,3,NA,"VisVerb","First","Vis","First",1,"y","y",999
"220",2,"21;5","10-25-2006","12:54:40","male",56,"cross",3000,5,3,NA,"VisVerb","Both","Vis","First",1,"n","n",1050
"221",2,"21;5","10-25-2006","12:54:40","male",57,"single",6000,5,0,3,"Verb",NA,"Verb",NA,1,"n","n",1195
"222",2,"21;5","10-25-2006","12:54:40","male",58,"single",4000,0,3,NA,"Vis",NA,"Vis",NA,1,"n","n",1104
"223",2,"21;5","10-25-2006","12:54:40","male",59,"within",3000,5,0,3,"VerbVerb","First","Verb","First",1,"y","y",1479
"224",2,"21;5","10-25-2006","12:54:40","male",60,"within",3000,0,3,NA,"VisVis","Second","Vis","Second",1,"y","y",1044
"225",2,"21;5","10-25-2006","12:54:40","male",61,"single",6000,5,0,1,"Verb",NA,"Verb",NA,1,"y","y",850
"226",2,"21;5","10-25-2006","12:54:40","male",62,"within",3000,0,3,NA,"VisVis","First","Vis","First",1,"n","n",1414
"227",2,"21;5","10-25-2006","12:54:40","male",63,"cross",3000,5,3,3,"VerbVis","Both","Verb","First",0,"y","n",1716
"228",2,"21;5","10-25-2006","12:54:40","male",64,"single",3000,0,3,NA,"Vis",NA,"Vis",NA,1,"y","y",690
"229",2,"21;5","10-25-2006","12:54:40","male",65,"within",3000,5,0,2,"VerbVerb","Both","Verb","Second",0,"y","n",1304
"230",2,"21;5","10-25-2006","12:54:40","male",66,"cross",3000,5,3,NA,"VisVerb","Both","Vis","First",1,"n","n",858
"231",2,"21;5","10-25-2006","12:54:40","male",67,"within",3000,5,0,2,"VerbVerb","Second","Verb","Second",1,"y","y",1552
"232",2,"21;5","10-25-2006","12:54:40","male",68,"single",3000,0,3,NA,"Vis",NA,"Vis",NA,1,"n","n",1199
"233",2,"21;5","10-25-2006","12:54:40","male",69,"cross",3000,5,3,2,"VisVerb","Both","Verb","Second",1,"n","n",1568
"234",2,"21;5","10-25-2006","12:54:40","male",70,"within",3000,5,0,5,"VerbVerb","Both","Verb","Second",1,"n","n",1322
"235",2,"21;5","10-25-2006","12:54:40","male",71,"cross",3000,5,3,NA,"VisVerb","First","Vis","First",1,"n","n",783
"236",2,"21;5","10-25-2006","12:54:40","male",72,"cross",3000,5,3,NA,"VerbVis","Second","Vis","Second",1,"y","y",1089
"237",2,"21;5","10-25-2006","12:54:40","male",73,"within",3000,5,0,5,"VerbVerb","Both","Verb","First",1,"n","n",1519
"238",2,"21;5","10-25-2006","12:54:40","male",74,"cross",3000,5,3,NA,"VisVerb","First","Vis","First",1,"y","y",731
"239",2,"21;5","10-25-2006","12:54:40","male",75,"cross",3000,5,3,NA,"VerbVis","Second","Vis","Second",1,"n","n",783
"240",2,"21;5","10-25-2006","12:54:40","male",76,"within",3000,0,3,NA,"VisVis","Both","Vis","First",0,"n","y",1775
"241",2,"21;5","10-25-2006","12:54:40","male",77,"single",6000,0,3,NA,"Vis",NA,"Vis",NA,1,"y","y",942
"242",2,"21;5","10-25-2006","12:54:40","male",78,"within",3000,5,0,3,"VerbVerb","First","Verb","First",0,"n","y",1279
"243",2,"21;5","10-25-2006","12:54:40","male",79,"within",3000,0,3,NA,"VisVis","Second","Vis","Second",0,"n","y",1352
"244",2,"21;5","10-25-2006","12:54:40","male",80,"single",4000,5,0,5,"Verb",NA,"Verb",NA,1,"y","y",963
"245",2,"21;5","10-25-2006","12:54:40","male",81,"cross",3000,5,3,1,"VerbVis","First","Verb","First",1,"y","y",1063
"246",2,"21;5","10-25-2006","12:54:40","male",82,"within",3000,0,3,NA,"VisVis","Both","Vis","Second",1,"n","n",1201
"247",2,"21;5","10-25-2006","12:54:40","male",83,"single",4000,0,3,NA,"Vis",NA,"Vis",NA,1,"y","y",749
"248",2,"21;5","10-25-2006","12:54:40","male",84,"within",3000,0,3,NA,"VisVis","Both","Vis","First",0,"y","n",1866
"249",2,"21;5","10-25-2006","12:54:40","male",85,"cross",3000,5,3,4,"VerbVis","First","Verb","First",1,"n","n",1295
"250",2,"21;5","10-25-2006","12:54:40","male",86,"single",4000,5,0,3,"Verb",NA,"Verb",NA,1,"n","n",1942
"251",2,"21;5","10-25-2006","12:54:40","male",87,"cross",3000,5,3,NA,"VisVerb","Both","Vis","First",0,"y","n",1602
"252",2,"21;5","10-25-2006","12:54:40","male",88,"cross",3000,5,3,4,"VerbVis","Both","Verb","First",1,"n","n",1026
"253",2,"21;5","10-25-2006","12:54:40","male",89,"cross",3000,5,3,NA,"VerbVis","Both","Vis","Second",1,"n","n",1877
"254",2,"21;5","10-25-2006","12:54:40","male",90,"cross",3000,5,3,NA,"VerbVis","Both","Vis","Second",1,"y","y",1941
"255",2,"21;5","10-25-2006","12:54:40","male",91,"single",3000,5,0,1,"Verb",NA,"Verb",NA,1,"n","n",1368
"256",2,"21;5","10-25-2006","12:54:40","male",92,"single",3000,5,0,1,"Verb",NA,"Verb",NA,1,"y","y",912
"257",2,"21;5","10-25-2006","12:54:40","male",93,"cross",3000,5,3,1,"VisVerb","Second","Verb","Second",1,"y","y",878
"258",2,"21;5","10-25-2006","12:54:40","male",94,"within",3000,5,0,5,"VerbVerb","Second","Verb","Second",1,"n","n",1056
"259",2,"21;5","10-25-2006","12:54:40","male",95,"cross",3000,5,3,4,"VisVerb","Second","Verb","Second",0,"n","y",1207
"260",2,"21;5","10-25-2006","12:54:40","male",96,"single",6000,0,3,NA,"Vis",NA,"Vis",NA,1,"n","n",971
"261",2,"21;5","10-25-2006","12:54:40","male",97,"within",3000,0,3,NA,"VisVis","Both","Vis","Second",0,"y","n",1878
"262",2,"21;5","10-25-2006","12:54:40","male",98,"within",3000,5,0,3,"VerbVerb","Both","Verb","First",0,"y","n",1382
"263",2,"21;5","10-25-2006","12:54:40","male",99,"cross",3000,5,3,1,"VisVerb","Both","Verb","Second",1,"y","y",1012
"264",2,"21;5","10-25-2006","12:54:40","male",100,"within",3000,0,3,NA,"VisVis","First","Vis","First",0,"y","n",2295
"265",2,"21;5","10-25-2006","12:54:40","male",101,"cross",3000,5,3,2,"VisVerb","Both","Verb","Second",1,"n","n",1199
"266",2,"21;5","10-25-2006","12:54:40","male",102,"cross",3000,5,3,5,"VisVerb","Both","Verb","Second",1,"y","y",845
"267",2,"21;5","10-25-2006","12:54:40","male",103,"cross",3000,5,3,5,"VerbVis","First","Verb","First",1,"n","n",990
"268",2,"21;5","10-25-2006","12:54:40","male",104,"within",3000,5,0,4,"VerbVerb","Both","Verb","First",1,"y","y",1019
"269",2,"21;5","10-25-2006","12:54:40","male",105,"cross",3000,5,3,2,"VerbVis","Both","Verb","First",1,"y","y",1207
"270",2,"21;5","10-25-2006","12:54:40","male",106,"cross",3000,5,3,NA,"VerbVis","Second","Vis","Second",1,"y","y",1045
"271",2,"21;5","10-25-2006","12:54:40","male",107,"cross",3000,5,3,3,"VerbVis","Both","Verb","First",1,"n","n",1200
"272",2,"21;5","10-25-2006","12:54:40","male",108,"cross",3000,5,3,NA,"VisVerb","First","Vis","First",1,"y","y",824
"273",2,"21;5","10-25-2006","12:54:40","male",109,"within",3000,0,3,NA,"VisVis","First","Vis","First",1,"y","y",2203
"274",2,"21;5","10-25-2006","12:54:40","male",110,"within",3000,0,3,NA,"VisVis","First","Vis","First",1,"n","n",2507
"275",2,"21;5","10-25-2006","12:54:40","male",111,"single",4000,5,0,5,"Verb",NA,"Verb",NA,1,"n","n",1106
"276",2,"21;5","10-25-2006","12:54:40","male",112,"within",3000,5,0,1,"VerbVerb","First","Verb","First",1,"y","y",855
"277",2,"21;5","10-25-2006","12:54:40","male",113,"cross",3000,5,3,NA,"VerbVis","Both","Vis","Second",1,"y","y",1371
"278",2,"21;5","10-25-2006","12:54:40","male",114,"single",3000,0,3,NA,"Vis",NA,"Vis",NA,1,"n","n",1065
"279",2,"21;5","10-25-2006","12:54:40","male",115,"cross",3000,5,3,NA,"VerbVis","Second","Vis","Second",1,"n","n",871
"280",2,"21;5","10-25-2006","12:54:40","male",116,"cross",3000,5,3,NA,"VisVerb","First","Vis","First",1,"n","n",823
"281",2,"21;5","10-25-2006","12:54:40","male",117,"within",3000,0,3,NA,"VisVis","Both","Vis","Second",0,"y","n",974
"282",2,"21;5","10-25-2006","12:54:40","male",118,"within",3000,5,0,1,"VerbVerb","Second","Verb","Second",1,"y","y",860
"283",2,"21;5","10-25-2006","12:54:40","male",119,"single",4000,5,0,4,"Verb",NA,"Verb",NA,1,"y","y",934
"284",2,"21;5","10-25-2006","12:54:40","male",120,"within",3000,0,3,NA,"VisVis","Both","Vis","First",1,"n","n",1029
"285",2,"21;5","10-25-2006","12:54:40","male",121,"single",6000,0,3,NA,"Vis",NA,"Vis",NA,1,"y","y",1192
"286",2,"21;5","10-25-2006","12:54:40","male",122,"cross",3000,5,3,NA,"VisVerb","Both","Vis","First",1,"n","n",852
"287",2,"21;5","10-25-2006","12:54:40","male",123,"cross",3000,5,3,NA,"VerbVis","Both","Vis","Second",1,"n","n",2215
"288",2,"21;5","10-25-2006","12:54:40","male",124,"cross",3000,5,3,3,"VisVerb","Second","Verb","Second",1,"y","y",1213
"289",2,"21;5","10-25-2006","12:54:40","male",125,"single",3000,5,0,5,"Verb",NA,"Verb",NA,1,"y","y",1082
"290",2,"21;5","10-25-2006","12:54:40","male",126,"cross",3000,5,3,4,"VisVerb","Second","Verb","Second",1,"n","n",1270
"291",2,"21;5","10-25-2006","12:54:40","male",127,"single",4000,0,3,NA,"Vis",NA,"Vis",NA,1,"n","n",964
"292",2,"21;5","10-25-2006","12:54:40","male",128,"single",6000,0,3,NA,"Vis",NA,"Vis",NA,1,"n","n",832
"293",2,"21;5","10-25-2006","12:54:40","male",129,"within",3000,0,3,NA,"VisVis","Second","Vis","Second",1,"n","n",1100
"294",2,"21;5","10-25-2006","12:54:40","male",130,"within",3000,5,0,3,"VerbVerb","Both","Verb","Second",1,"n","n",1314
"295",2,"21;5","10-25-2006","12:54:40","male",131,"within",3000,5,0,4,"VerbVerb","Second","Verb","Second",1,"n","n",1099
"296",2,"21;5","10-25-2006","12:54:40","male",132,"within",3000,0,3,NA,"VisVis","Both","Vis","First",1,"y","y",1870
"297",2,"21;5","10-25-2006","12:54:40","male",133,"within",3000,0,3,NA,"VisVis","Both","Vis","Second",1,"n","n",824
"298",2,"21;5","10-25-2006","12:54:40","male",134,"within",3000,5,0,4,"VerbVerb","Both","Verb","First",1,"n","n",1401
"299",2,"21;5","10-25-2006","12:54:40","male",135,"single",3000,0,3,NA,"Vis",NA,"Vis",NA,0,"y","n",2342
"300",2,"21;5","10-25-2006","12:54:40","male",136,"within",3000,0,3,NA,"VisVis","Second","Vis","Second",1,"y","y",2111
"301",2,"21;5","10-25-2006","12:54:40","male",137,"within",3000,5,0,3,"VerbVerb","First","Verb","First",1,"n","n",1278
"302",2,"21;5","10-25-2006","12:54:40","male",138,"single",6000,5,0,5,"Verb",NA,"Verb",NA,1,"y","y",1178
"303",2,"21;5","10-25-2006","12:54:40","male",139,"single",6000,5,0,2,"Verb",NA,"Verb",NA,1,"n","n",1138
"304",2,"21;5","10-25-2006","12:54:40","male",140,"within",3000,5,0,2,"VerbVerb","Both","Verb","Second",1,"y","y",1724
"305",2,"21;5","10-25-2006","12:54:40","male",141,"cross",3000,5,3,5,"VerbVis","First","Verb","First",1,"y","y",702
"306",2,"21;5","10-25-2006","12:54:40","male",142,"single",3000,5,0,3,"Verb",NA,"Verb",NA,1,"n","n",2809
"307",2,"21;5","10-25-2006","12:54:40","male",143,"single",4000,0,3,NA,"Vis",NA,"Vis",NA,1,"y","y",1099
"308",2,"21;5","10-25-2006","12:54:40","male",144,"cross",3000,5,3,NA,"VisVerb","Both","Vis","First",1,"y","y",2795
"309",2,"21;5","10-25-2006","12:54:40","male",145,"cross",3000,5,3,4,"VerbVis","First","Verb","First",0,"y","n",1363
"310",2,"21;5","10-25-2006","12:54:40","male",146,"cross",3000,5,3,3,"VisVerb","Second","Verb","Second",1,"y","y",918
"311",2,"21;5","10-25-2006","12:54:40","male",147,"within",3000,5,0,1,"VerbVerb","Both","Verb","Second",1,"n","n",1568
"312",2,"21;5","10-25-2006","12:54:40","male",148,"single",4000,0,3,NA,"Vis",NA,"Vis",NA,1,"n","n",1135
"313",2,"21;5","10-25-2006","12:54:40","male",149,"cross",3000,5,3,NA,"VerbVis","Both","Vis","Second",1,"y","y",1282
"314",2,"21;5","10-25-2006","12:54:40","male",150,"within",3000,5,0,5,"VerbVerb","Both","Verb","Second",1,"y","y",1094
"315",2,"21;5","10-25-2006","12:54:40","male",151,"single",4000,5,0,2,"Verb",NA,"Verb",NA,0,"y","n",1143
"316",2,"21;5","10-25-2006","12:54:40","male",152,"within",3000,5,0,1,"VerbVerb","First","Verb","First",1,"n","n",1060
"317",2,"21;5","10-25-2006","12:54:40","male",153,"single",3000,0,3,NA,"Vis",NA,"Vis",NA,1,"n","n",1008
"318",2,"21;5","10-25-2006","12:54:40","male",154,"cross",3000,5,3,5,"VisVerb","Second","Verb","Second",1,"n","n",1151
"319",2,"21;5","10-25-2006","12:54:40","male",155,"single",4000,0,3,NA,"Vis",NA,"Vis",NA,1,"y","y",898
"320",2,"21;5","10-25-2006","12:54:40","male",156,"single",6000,5,0,5,"Verb",NA,"Verb",NA,1,"n","n",1031
"321",2,"21;5","10-25-2006","12:54:40","male",157,"cross",3000,5,3,4,"VerbVis","Both","Verb","First",0,"y","n",1928
"322",2,"21;5","10-25-2006","12:54:40","male",158,"within",3000,0,3,NA,"VisVis","Both","Vis","First",1,"y","y",1720
"323",2,"21;5","10-25-2006","12:54:40","male",159,"within",3000,0,3,NA,"VisVis","Second","Vis","Second",0,"n","y",1385
"324",2,"21;5","10-25-2006","12:54:40","male",160,"cross",3000,5,3,NA,"VisVerb","First","Vis","First",1,"y","y",777
"325",2,"21;5","10-25-2006","12:54:40","male",161,"cross",3000,5,3,2,"VerbVis","First","Verb","First",1,"n","n",934
"326",2,"21;5","10-25-2006","12:54:40","male",162,"within",3000,0,3,NA,"VisVis","Both","Vis","Second",1,"y","y",1893
"327",2,"21;5","10-25-2006","12:54:40","male",163,"single",4000,5,0,1,"Verb",NA,"Verb",NA,1,"n","n",1258
"328",2,"21;5","10-25-2006","12:54:40","male",164,"single",6000,5,0,2,"Verb",NA,"Verb",NA,1,"y","y",2044
"329",2,"21;5","10-25-2006","12:54:40","male",165,"within",3000,5,0,2,"VerbVerb","Both","Verb","First",1,"n","n",1056
"330",2,"21;5","10-25-2006","12:54:40","male",166,"cross",3000,5,3,NA,"VerbVis","Both","Vis","Second",1,"n","n",1529
"331",2,"21;5","10-25-2006","12:54:40","male",167,"cross",3000,5,3,NA,"VisVerb","Both","Vis","First",1,"n","n",1532
"332",2,"21;5","10-25-2006","12:54:40","male",168,"cross",3000,5,3,NA,"VisVerb","First","Vis","First",1,"n","n",1015
"333",2,"21;5","10-25-2006","12:54:40","male",169,"single",3000,5,0,1,"Verb",NA,"Verb",NA,1,"n","n",996
"334",2,"21;5","10-25-2006","12:54:40","male",170,"cross",3000,5,3,3,"VisVerb","Both","Verb","Second",1,"y","y",1432
"335",2,"21;5","10-25-2006","12:54:40","male",171,"cross",3000,5,3,NA,"VerbVis","Second","Vis","Second",1,"y","y",1042
"336",2,"21;5","10-25-2006","12:54:40","male",172,"within",3000,0,3,NA,"VisVis","Second","Vis","Second",0,"y","n",2137
"337",2,"21;5","10-25-2006","12:54:40","male",173,"within",3000,0,3,NA,"VisVis","Both","Vis","Second",1,"n","n",757
"338",2,"21;5","10-25-2006","12:54:40","male",174,"cross",3000,5,3,2,"VerbVis","Both","Verb","First",1,"n","n",1006
"339",2,"21;5","10-25-2006","12:54:40","male",175,"cross",3000,5,3,NA,"VerbVis","Second","Vis","Second",1,"n","n",839
"340",2,"21;5","10-25-2006","12:54:40","male",176,"within",3000,5,0,3,"VerbVerb","Second","Verb","Second",1,"y","y",1284
"341",2,"21;5","10-25-2006","12:54:40","male",177,"within",3000,0,3,NA,"VisVis","First","Vis","First",1,"y","y",1880
"342",2,"21;5","10-25-2006","12:54:40","male",178,"within",3000,0,3,NA,"VisVis","First","Vis","First",1,"n","n",695
"343",2,"21;5","10-25-2006","12:54:40","male",179,"within",3000,0,3,NA,"VisVis","Both","Vis","First",1,"n","n",1392
"344",2,"21;5","10-25-2006","12:54:40","male",180,"single",6000,0,3,NA,"Vis",NA,"Vis",NA,1,"y","y",1179
"345",2,"21;5","10-25-2006","12:54:40","male",181,"within",3000,5,0,5,"VerbVerb","Second","Verb","Second",1,"n","n",1164
"346",2,"21;5","10-25-2006","12:54:40","male",182,"single",6000,0,3,NA,"Vis",NA,"Vis",NA,1,"n","n",847
"347",2,"21;5","10-25-2006","12:54:40","male",183,"cross",3000,5,3,NA,"VisVerb","Both","Vis","First",1,"y","y",1619
"348",2,"21;5","10-25-2006","12:54:40","male",184,"within",3000,5,0,4,"VerbVerb","First","Verb","First",0,"y","n",1196
"349",2,"21;5","10-25-2006","12:54:40","male",185,"single",3000,0,3,NA,"Vis",NA,"Vis",NA,1,"y","y",753
"350",2,"21;5","10-25-2006","12:54:40","male",186,"single",3000,5,0,4,"Verb",NA,"Verb",NA,1,"y","y",1462
"351",2,"21;5","10-25-2006","12:54:40","male",187,"within",3000,5,0,2,"VerbVerb","Both","Verb","First",1,"y","y",3055
"352",2,"21;5","10-25-2006","12:54:40","male",188,"cross",3000,5,3,3,"VisVerb","Both","Verb","Second",0,"n","y",1623
"353",3,"18;11","10-25-2006","16:23:04","female",13,"single",3000,5,0,5,"Verb",NA,"Verb",NA,1,"y","y",1666
"354",3,"18;11","10-25-2006","16:23:04","female",14,"within",3000,0,3,NA,"VisVis","First","Vis","First",0,"y","n",1523
"355",3,"18;11","10-25-2006","16:23:04","female",15,"single",3000,0,3,NA,"Vis",NA,"Vis",NA,0,"n","y",1756
"356",3,"18;11","10-25-2006","16:23:04","female",16,"cross",3000,5,3,3,"VerbVis","First","Verb","First",1,"y","y",2021
"357",3,"18;11","10-25-2006","16:23:04","female",17,"single",6000,0,3,NA,"Vis",NA,"Vis",NA,0,"n","y",20561
"358",3,"18;11","10-25-2006","16:23:04","female",18,"cross",3000,5,3,NA,"VisVerb","First","Vis","First",1,"n","n",1867
"359",3,"18;11","10-25-2006","16:23:04","female",19,"single",3000,0,3,NA,"Vis",NA,"Vis",NA,1,"y","y",2168
"360",3,"18;11","10-25-2006","16:23:04","female",20,"within",3000,0,3,NA,"VisVis","Both","Vis","First",1,"y","y",1883
"361",3,"18;11","10-25-2006","16:23:04","female",21,"cross",3000,5,3,NA,"VisVerb","First","Vis","First",1,"y","y",2668
"362",3,"18;11","10-25-2006","16:23:04","female",22,"single",4000,0,3,NA,"Vis",NA,"Vis",NA,0,"n","y",6016
"363",3,"18;11","10-25-2006","16:23:04","female",23,"cross",3000,5,3,NA,"VisVerb","Both","Vis","First",1,"n","n",2049
"364",3,"18;11","10-25-2006","16:23:04","female",24,"within",3000,0,3,NA,"VisVis","Both","Vis","First",1,"n","n",1645
"365",3,"18;11","10-25-2006","16:23:04","female",25,"within",3000,5,0,4,"VerbVerb","Both","Verb","Second",1,"y","y",2540
"366",3,"18;11","10-25-2006","16:23:04","female",26,"cross",3000,5,3,5,"VerbVis","Both","Verb","First",1,"y","y",1472
"367",3,"18;11","10-25-2006","16:23:04","female",27,"within",3000,5,0,3,"VerbVerb","Both","Verb","First",1,"y","y",2367
"368",3,"18;11","10-25-2006","16:23:04","female",28,"within",3000,0,3,NA,"VisVis","Both","Vis","Second",0,"y","n",2692
"369",3,"18;11","10-25-2006","16:23:04","female",29,"single",6000,5,0,3,"Verb",NA,"Verb",NA,1,"y","y",2661
"370",3,"18;11","10-25-2006","16:23:04","female",30,"within",3000,5,0,1,"VerbVerb","Second","Verb","Second",1,"n","n",1580
"371",3,"18;11","10-25-2006","16:23:04","female",31,"within",3000,0,3,NA,"VisVis","Second","Vis","Second",1,"y","y",2124
"372",3,"18;11","10-25-2006","16:23:04","female",32,"single",6000,5,0,5,"Verb",NA,"Verb",NA,1,"n","n",2040
"373",3,"18;11","10-25-2006","16:23:04","female",33,"cross",3000,5,3,NA,"VerbVis","Both","Vis","Second",1,"n","n",5191
"374",3,"18;11","10-25-2006","16:23:04","female",34,"within",3000,5,0,4,"VerbVerb","First","Verb","First",1,"n","n",2592
"375",3,"18;11","10-25-2006","16:23:04","female",35,"cross",3000,5,3,NA,"VerbVis","Both","Vis","Second",1,"y","y",1454
"376",3,"18;11","10-25-2006","16:23:04","female",36,"cross",3000,5,3,1,"VisVerb","Second","Verb","Second",1,"n","n",1472
"377",3,"18;11","10-25-2006","16:23:04","female",37,"within",3000,0,3,NA,"VisVis","First","Vis","First",1,"n","n",1477
"378",3,"18;11","10-25-2006","16:23:04","female",38,"cross",3000,5,3,1,"VisVerb","Both","Verb","Second",1,"y","y",1498
"379",3,"18;11","10-25-2006","16:23:04","female",39,"within",3000,5,0,1,"VerbVerb","First","Verb","First",1,"y","y",1241
"380",3,"18;11","10-25-2006","16:23:04","female",40,"within",3000,5,0,3,"VerbVerb","Both","Verb","Second",1,"n","n",7461
"381",3,"18;11","10-25-2006","16:23:04","female",41,"single",4000,5,0,4,"Verb",NA,"Verb",NA,1,"y","y",1886
"382",3,"18;11","10-25-2006","16:23:04","female",42,"within",3000,5,0,1,"VerbVerb","Second","Verb","Second",1,"y","y",4218
"383",3,"18;11","10-25-2006","16:23:04","female",43,"cross",3000,5,3,3,"VerbVis","First","Verb","First",1,"n","n",6045
"384",3,"18;11","10-25-2006","16:23:04","female",44,"cross",3000,5,3,NA,"VerbVis","Second","Vis","Second",1,"n","n",1405
"385",3,"18;11","10-25-2006","16:23:04","female",45,"within",3000,5,0,4,"VerbVerb","Both","Verb","First",1,"n","n",2243
"386",3,"18;11","10-25-2006","16:23:04","female",46,"cross",3000,5,3,4,"VerbVis","Both","Verb","First",1,"n","n",2508
"387",3,"18;11","10-25-2006","16:23:04","female",47,"single",4000,0,3,NA,"Vis",NA,"Vis",NA,1,"y","y",2130
"388",3,"18;11","10-25-2006","16:23:04","female",48,"cross",3000,5,3,1,"VisVerb","Second","Verb","Second",1,"y","y",1501
"389",3,"18;11","10-25-2006","16:23:04","female",49,"cross",3000,5,3,3,"VisVerb","Both","Verb","Second",1,"n","n",2018
"390",3,"18;11","10-25-2006","16:23:04","female",50,"cross",3000,5,3,NA,"VisVerb","Both","Vis","First",0,"y","n",6215
"391",3,"18;11","10-25-2006","16:23:04","female",51,"single",6000,0,3,NA,"Vis",NA,"Vis",NA,1,"y","y",1733
"392",3,"18;11","10-25-2006","16:23:04","female",52,"within",3000,0,3,NA,"VisVis","Both","Vis","Second",1,"n","n",1897
"393",3,"18;11","10-25-2006","16:23:04","female",53,"cross",3000,5,3,NA,"VerbVis","Second","Vis","Second",1,"y","y",2108
"394",3,"18;11","10-25-2006","16:23:04","female",54,"single",3000,5,0,5,"Verb",NA,"Verb",NA,1,"n","n",1806
"395",3,"18;11","10-25-2006","16:23:04","female",55,"within",3000,0,3,NA,"VisVis","Second","Vis","Second",1,"n","n",1463
"396",3,"18;11","10-25-2006","16:23:04","female",56,"single",4000,5,0,4,"Verb",NA,"Verb",NA,1,"n","n",2557
"397",3,"18;11","10-25-2006","16:23:04","female",57,"cross",3000,5,3,NA,"VerbVis","Second","Vis","Second",1,"y","y",1670
"398",3,"18;11","10-25-2006","16:23:04","female",58,"within",3000,5,0,5,"VerbVerb","Both","Verb","Second",1,"y","y",1630
"399",3,"18;11","10-25-2006","16:23:04","female",59,"cross",3000,5,3,1,"VerbVis","Both","Verb","First",1,"y","y",1374
"400",3,"18;11","10-25-2006","16:23:04","female",60,"within",3000,5,0,5,"VerbVerb","Both","Verb","First",1,"n","n",1988
"401",3,"18;11","10-25-2006","16:23:04","female",61,"cross",3000,5,3,2,"VisVerb","Second","Verb","Second",0,"y","n",1970
"402",3,"18;11","10-25-2006","16:23:04","female",62,"cross",3000,5,3,NA,"VisVerb","First","Vis","First",1,"n","n",1906
"403",3,"18;11","10-25-2006","16:23:04","female",63,"single",3000,0,3,NA,"Vis",NA,"Vis",NA,1,"y","y",1836
"404",3,"18;11","10-25-2006","16:23:04","female",64,"within",3000,0,3,NA,"VisVis","Both","Vis","Second",1,"y","y",1848
"405",3,"18;11","10-25-2006","16:23:04","female",65,"within",3000,5,0,2,"VerbVerb","Second","Verb","Second",0,"n","y",2595
"406",3,"18;11","10-25-2006","16:23:04","female",66,"within",3000,0,3,NA,"VisVis","Second","Vis","Second",0,"y","n",2578
"407",3,"18;11","10-25-2006","16:23:04","female",67,"within",3000,0,3,NA,"VisVis","Both","Vis","First",1,"n","n",2018
"408",3,"18;11","10-25-2006","16:23:04","female",68,"single",6000,5,0,4,"Verb",NA,"Verb",NA,1,"y","y",4246
"409",3,"18;11","10-25-2006","16:23:04","female",69,"cross",3000,5,3,1,"VerbVis","Both","Verb","First",1,"n","n",1795
"410",3,"18;11","10-25-2006","16:23:04","female",70,"single",4000,0,3,NA,"Vis",NA,"Vis",NA,1,"y","y",1496
"411",3,"18;11","10-25-2006","16:23:04","female",71,"within",3000,5,0,3,"VerbVerb","First","Verb","First",0,"y","n",2372
"412",3,"18;11","10-25-2006","16:23:04","female",72,"within",3000,5,0,5,"VerbVerb","First","Verb","First",1,"n","n",2002
"413",3,"18;11","10-25-2006","16:23:04","female",73,"within",3000,0,3,NA,"VisVis","Both","Vis","First",1,"y","y",1981
"414",3,"18;11","10-25-2006","16:23:04","female",74,"single",3000,5,0,1,"Verb",NA,"Verb",NA,1,"n","n",1657
"415",3,"18;11","10-25-2006","16:23:04","female",75,"within",3000,5,0,4,"VerbVerb","Second","Verb","Second",0,"y","n",4706
"416",3,"18;11","10-25-2006","16:23:04","female",76,"cross",3000,5,3,NA,"VisVerb","Both","Vis","First",1,"n","n",2065
"417",3,"18;11","10-25-2006","16:23:04","female",77,"within",3000,0,3,NA,"VisVis","First","Vis","First",0,"n","y",3795
"418",3,"18;11","10-25-2006","16:23:04","female",78,"within",3000,0,3,NA,"VisVis","Both","Vis","Second",0,"n","y",1680
"419",3,"18;11","10-25-2006","16:23:04","female",79,"single",6000,0,3,NA,"Vis",NA,"Vis",NA,1,"y","y",2229
"420",3,"18;11","10-25-2006","16:23:04","female",80,"single",6000,0,3,NA,"Vis",NA,"Vis",NA,1,"n","n",2340
"421",3,"18;11","10-25-2006","16:23:04","female",81,"within",3000,0,3,NA,"VisVis","First","Vis","First",1,"y","y",1623
"422",3,"18;11","10-25-2006","16:23:04","female",82,"cross",3000,5,3,4,"VerbVis","First","Verb","First",1,"y","y",3569
"423",3,"18;11","10-25-2006","16:23:04","female",83,"single",3000,0,3,NA,"Vis",NA,"Vis",NA,1,"n","n",1980
"424",3,"18;11","10-25-2006","16:23:04","female",84,"cross",3000,5,3,4,"VisVerb","Second","Verb","Second",1,"n","n",2610
"425",3,"18;11","10-25-2006","16:23:04","female",85,"within",3000,0,3,NA,"VisVis","Second","Vis","Second",0,"n","y",1655
"426",3,"18;11","10-25-2006","16:23:04","female",86,"within",3000,5,0,4,"VerbVerb","Both","Verb","Second",1,"n","n",2396
"427",3,"18;11","10-25-2006","16:23:04","female",87,"cross",3000,5,3,NA,"VerbVis","Second","Vis","Second",1,"n","n",3036
"428",3,"18;11","10-25-2006","16:23:04","female",88,"cross",3000,5,3,NA,"VerbVis","Both","Vis","Second",1,"y","y",4323
"429",3,"18;11","10-25-2006","16:23:04","female",89,"single",6000,5,0,4,"Verb",NA,"Verb",NA,1,"n","n",2565
"430",3,"18;11","10-25-2006","16:23:04","female",90,"single",3000,5,0,3,"Verb",NA,"Verb",NA,1,"y","y",2805
"431",3,"18;11","10-25-2006","16:23:04","female",91,"within",3000,5,0,2,"VerbVerb","Both","Verb","First",1,"y","y",3023
"432",3,"18;11","10-25-2006","16:23:04","female",92,"single",4000,0,3,NA,"Vis",NA,"Vis",NA,1,"n","n",2675
"433",3,"18;11","10-25-2006","16:23:04","female",93,"single",4000,5,0,1,"Verb",NA,"Verb",NA,1,"y","y",1671
"434",3,"18;11","10-25-2006","16:23:04","female",94,"cross",3000,5,3,5,"VerbVis","First","Verb","First",1,"n","n",1922
"435",3,"18;11","10-25-2006","16:23:04","female",95,"cross",3000,5,3,2,"VisVerb","Both","Verb","Second",1,"y","y",2485
"436",3,"18;11","10-25-2006","16:23:04","female",96,"cross",3000,5,3,5,"VisVerb","Both","Verb","Second",1,"n","n",1867
"437",3,"18;11","10-25-2006","16:23:04","female",97,"cross",3000,5,3,NA,"VerbVis","Both","Vis","Second",1,"n","n",1553
"438",3,"18;11","10-25-2006","16:23:04","female",98,"single",4000,5,0,2,"Verb",NA,"Verb",NA,1,"n","n",2340
"439",3,"18;11","10-25-2006","16:23:04","female",99,"cross",3000,5,3,NA,"VisVerb","First","Vis","First",1,"y","y",1635
"440",3,"18;11","10-25-2006","16:23:04","female",100,"cross",3000,5,3,NA,"VisVerb","Both","Vis","First",1,"y","y",2631
"441",3,"18;11","10-25-2006","16:23:04","female",101,"single",6000,0,3,NA,"Vis",NA,"Vis",NA,1,"y","y",1813
"442",3,"18;11","10-25-2006","16:23:04","female",102,"cross",3000,5,3,4,"VisVerb","Second","Verb","Second",0,"y","n",2373
"443",3,"18;11","10-25-2006","16:23:04","female",103,"within",3000,5,0,4,"VerbVerb","Second","Verb","Second",1,"y","y",1967
"444",3,"18;11","10-25-2006","16:23:04","female",104,"within",3000,5,0,1,"VerbVerb","First","Verb","First",1,"n","n",3130
"445",3,"18;11","10-25-2006","16:23:04","female",105,"cross",3000,5,3,3,"VisVerb","Second","Verb","Second",1,"n","n",2347
"446",3,"18;11","10-25-2006","16:23:04","female",106,"within",3000,0,3,NA,"VisVis","Second","Vis","Second",0,"y","n",1812
"447",3,"18;11","10-25-2006","16:23:04","female",107,"within",3000,0,3,NA,"VisVis","Both","Vis","Second",0,"y","n",1506
"448",3,"18;11","10-25-2006","16:23:04","female",108,"cross",3000,5,3,NA,"VisVerb","Both","Vis","First",1,"y","y",4156
"449",3,"18;11","10-25-2006","16:23:04","female",109,"cross",3000,5,3,NA,"VerbVis","Both","Vis","Second",1,"n","n",1949
"450",3,"18;11","10-25-2006","16:23:04","female",110,"single",4000,0,3,NA,"Vis",NA,"Vis",NA,1,"y","y",2125
"451",3,"18;11","10-25-2006","16:23:04","female",111,"within",3000,0,3,NA,"VisVis","First","Vis","First",1,"y","y",1363
"452",3,"18;11","10-25-2006","16:23:04","female",112,"cross",3000,5,3,4,"VisVerb","Both","Verb","Second",1,"n","n",2660
"453",3,"18;11","10-25-2006","16:23:04","female",113,"within",3000,0,3,NA,"VisVis","Second","Vis","Second",1,"n","n",1582
"454",3,"18;11","10-25-2006","16:23:04","female",114,"single",4000,0,3,NA,"Vis",NA,"Vis",NA,1,"n","n",2523
"455",3,"18;11","10-25-2006","16:23:04","female",115,"single",4000,5,0,2,"Verb",NA,"Verb",NA,1,"n","n",2348
"456",3,"18;11","10-25-2006","16:23:04","female",116,"single",4000,5,0,1,"Verb",NA,"Verb",NA,1,"y","y",1591
"457",3,"18;11","10-25-2006","16:23:04","female",117,"single",6000,5,0,1,"Verb",NA,"Verb",NA,1,"n","n",2065
"458",3,"18;11","10-25-2006","16:23:04","female",118,"cross",3000,5,3,NA,"VerbVis","Second","Vis","Second",1,"y","y",1537
"459",3,"18;11","10-25-2006","16:23:04","female",119,"within",3000,0,3,NA,"VisVis","Both","Vis","First",0,"n","y",2015
"460",3,"18;11","10-25-2006","16:23:04","female",120,"cross",3000,5,3,NA,"VerbVis","Second","Vis","Second",1,"n","n",3296
"461",3,"18;11","10-25-2006","16:23:04","female",121,"within",3000,0,3,NA,"VisVis","First","Vis","First",1,"n","n",1564
"462",3,"18;11","10-25-2006","16:23:04","female",122,"single",6000,0,3,NA,"Vis",NA,"Vis",NA,1,"n","n",1933
"463",3,"18;11","10-25-2006","16:23:04","female",123,"single",3000,5,0,2,"Verb",NA,"Verb",NA,1,"n","n",2100
"464",3,"18;11","10-25-2006","16:23:04","female",124,"single",6000,5,0,1,"Verb",NA,"Verb",NA,1,"y","y",1659
"465",3,"18;11","10-25-2006","16:23:04","female",125,"within",3000,5,0,5,"VerbVerb","First","Verb","First",1,"y","y",2183
"466",3,"18;11","10-25-2006","16:23:04","female",126,"cross",3000,5,3,NA,"VisVerb","Both","Vis","First",1,"n","n",3918
"467",3,"18;11","10-25-2006","16:23:04","female",127,"single",3000,0,3,NA,"Vis",NA,"Vis",NA,0,"y","n",5587
"468",3,"18;11","10-25-2006","16:23:04","female",128,"within",3000,0,3,NA,"VisVis","Both","Vis","Second",0,"n","y",1847
"469",3,"18;11","10-25-2006","16:23:04","female",129,"within",3000,0,3,NA,"VisVis","Both","Vis","First",1,"y","y",1916
"470",3,"18;11","10-25-2006","16:23:04","female",130,"within",3000,5,0,4,"VerbVerb","Both","Verb","Second",0,"n","y",7469
"471",3,"18;11","10-25-2006","16:23:04","female",131,"cross",3000,5,3,NA,"VisVerb","First","Vis","First",1,"n","n",1496
"472",3,"18;11","10-25-2006","16:23:04","female",132,"cross",3000,5,3,NA,"VisVerb","First","Vis","First",0,"y","n",9385
"473",3,"18;11","10-25-2006","16:23:04","female",133,"within",3000,5,0,2,"VerbVerb","Both","Verb","First",1,"y","y",2740
"474",3,"18;11","10-25-2006","16:23:04","female",134,"cross",3000,5,3,2,"VerbVis","Both","Verb","First",1,"n","n",2062
"475",3,"18;11","10-25-2006","16:23:04","female",135,"within",3000,5,0,1,"VerbVerb","Both","Verb","First",1,"n","n",2418
"476",3,"18;11","10-25-2006","16:23:04","female",136,"single",3000,5,0,5,"Verb",NA,"Verb",NA,1,"y","y",1417
"477",3,"18;11","10-25-2006","16:23:04","female",137,"single",3000,0,3,NA,"Vis",NA,"Vis",NA,1,"n","n",1763
"478",3,"18;11","10-25-2006","16:23:04","female",138,"cross",3000,5,3,1,"VerbVis","First","Verb","First",1,"y","y",1367
"479",3,"18;11","10-25-2006","16:23:04","female",139,"cross",3000,5,3,3,"VerbVis","Both","Verb","First",1,"y","y",3152
"480",3,"18;11","10-25-2006","16:23:04","female",140,"within",3000,5,0,4,"VerbVerb","Second","Verb","Second",1,"n","n",1934
"481",3,"18;11","10-25-2006","16:23:04","female",141,"cross",3000,5,3,1,"VerbVis","First","Verb","First",1,"n","n",1358
"482",3,"18;11","10-25-2006","16:23:04","female",142,"cross",3000,5,3,NA,"VerbVis","Both","Vis","Second",1,"y","y",1847
"483",3,"18;11","10-25-2006","16:23:04","female",143,"within",3000,5,0,3,"VerbVerb","Both","Verb","Second",1,"y","y",2652
"484",3,"18;11","10-25-2006","16:23:04","female",144,"cross",3000,5,3,2,"VisVerb","Both","Verb","Second",0,"y","n",1935
"485",3,"18;11","10-25-2006","16:23:04","female",145,"within",3000,0,3,NA,"VisVis","First","Vis","First",0,"y","n",1555
"486",3,"18;11","10-25-2006","16:23:04","female",146,"within",3000,0,3,NA,"VisVis","Both","Vis","First",0,"n","y",2712
"487",3,"18;11","10-25-2006","16:23:04","female",147,"cross",3000,5,3,NA,"VerbVis","Both","Vis","Second",1,"y","y",1781
"488",3,"18;11","10-25-2006","16:23:04","female",148,"within",3000,5,0,4,"VerbVerb","First","Verb","First",1,"n","n",2190
"489",3,"18;11","10-25-2006","16:23:04","female",149,"within",3000,5,0,2,"VerbVerb","Both","Verb","Second",1,"n","n",2773
"490",3,"18;11","10-25-2006","16:23:04","female",150,"single",6000,5,0,2,"Verb",NA,"Verb",NA,1,"n","n",1843
"491",3,"18;11","10-25-2006","16:23:04","female",151,"cross",3000,5,3,NA,"VisVerb","Both","Vis","First",1,"n","n",1434
"492",3,"18;11","10-25-2006","16:23:04","female",152,"cross",3000,5,3,5,"VerbVis","First","Verb","First",1,"n","n",1438
"493",3,"18;11","10-25-2006","16:23:04","female",153,"single",6000,5,0,4,"Verb",NA,"Verb",NA,0,"y","n",2544
"494",3,"18;11","10-25-2006","16:23:04","female",154,"single",3000,0,3,NA,"Vis",NA,"Vis",NA,1,"n","n",1243
"495",3,"18;11","10-25-2006","16:23:04","female",155,"cross",3000,5,3,NA,"VisVerb","Both","Vis","First",1,"y","y",2700
"496",3,"18;11","10-25-2006","16:23:04","female",156,"single",4000,0,3,NA,"Vis",NA,"Vis",NA,1,"y","y",1664
"497",3,"18;11","10-25-2006","16:23:04","female",157,"cross",3000,5,3,NA,"VisVerb","First","Vis","First",1,"y","y",1474
"498",3,"18;11","10-25-2006","16:23:04","female",158,"within",3000,0,3,NA,"VisVis","Both","Vis","First",1,"y","y",1438
"499",3,"18;11","10-25-2006","16:23:04","female",159,"cross",3000,5,3,3,"VisVerb","Second","Verb","Second",1,"n","n",2035
"500",3,"18;11","10-25-2006","16:23:04","female",160,"cross",3000,5,3,NA,"VerbVis","Second","Vis","Second",1,"n","n",2176
"501",3,"18;11","10-25-2006","16:23:04","female",161,"within",3000,5,0,1,"VerbVerb","First","Verb","First",1,"y","y",1639
"502",3,"18;11","10-25-2006","16:23:04","female",162,"single",4000,0,3,NA,"Vis",NA,"Vis",NA,1,"n","n",1461
"503",3,"18;11","10-25-2006","16:23:04","female",163,"cross",3000,5,3,5,"VisVerb","Both","Verb","Second",1,"y","y",1594
"504",3,"18;11","10-25-2006","16:23:04","female",164,"within",3000,0,3,NA,"VisVis","Both","Vis","Second",0,"y","n",1322
"505",3,"18;11","10-25-2006","16:23:04","female",165,"cross",3000,5,3,2,"VerbVis","Both","Verb","First",1,"n","n",1637
"506",3,"18;11","10-25-2006","16:23:04","female",166,"single",4000,5,0,2,"Verb",NA,"Verb",NA,1,"y","y",1761
"507",3,"18;11","10-25-2006","16:23:04","female",167,"cross",3000,5,3,NA,"VerbVis","Both","Vis","Second",1,"n","n",1657
"508",3,"18;11","10-25-2006","16:23:04","female",168,"single",6000,0,3,NA,"Vis",NA,"Vis",NA,1,"y","y",1769
"509",3,"18;11","10-25-2006","16:23:04","female",169,"cross",3000,5,3,4,"VerbVis","First","Verb","First",1,"y","y",1808
"510",3,"18;11","10-25-2006","16:23:04","female",170,"within",3000,5,0,4,"VerbVerb","Both","Verb","First",0,"y","n",4258
"511",3,"18;11","10-25-2006","16:23:04","female",171,"within",3000,0,3,NA,"VisVis","First","Vis","First",1,"n","n",1328
"512",3,"18;11","10-25-2006","16:23:04","female",172,"cross",3000,5,3,4,"VerbVis","Both","Verb","First",1,"y","y",1592
"513",3,"18;11","10-25-2006","16:23:04","female",173,"single",3000,5,0,4,"Verb",NA,"Verb",NA,1,"y","y",1792
"514",3,"18;11","10-25-2006","16:23:04","female",174,"cross",3000,5,3,2,"VisVerb","Both","Verb","Second",1,"n","n",2136
"515",3,"18;11","10-25-2006","16:23:04","female",175,"within",3000,5,0,1,"VerbVerb","Second","Verb","Second",1,"y","y",6785
"516",3,"18;11","10-25-2006","16:23:04","female",176,"within",3000,0,3,NA,"VisVis","Second","Vis","Second",1,"y","y",1635
"517",3,"18;11","10-25-2006","16:23:04","female",177,"within",3000,0,3,NA,"VisVis","Second","Vis","Second",0,"n","y",1506
"518",3,"18;11","10-25-2006","16:23:04","female",178,"within",3000,5,0,5,"VerbVerb","Both","Verb","Second",1,"y","y",1909
"519",3,"18;11","10-25-2006","16:23:04","female",179,"cross",3000,5,3,NA,"VerbVis","Second","Vis","Second",1,"y","y",1973
"520",3,"18;11","10-25-2006","16:23:04","female",180,"cross",3000,5,3,NA,"VisVerb","First","Vis","First",1,"n","n",1461
"521",3,"18;11","10-25-2006","16:23:04","female",181,"within",3000,5,0,3,"VerbVerb","Both","Verb","First",1,"n","n",2775
"522",3,"18;11","10-25-2006","16:23:04","female",182,"single",3000,0,3,NA,"Vis",NA,"Vis",NA,1,"y","y",1215
"523",3,"18;11","10-25-2006","16:23:04","female",183,"cross",3000,5,3,4,"VisVerb","Second","Verb","Second",1,"y","y",2525
"524",3,"18;11","10-25-2006","16:23:04","female",184,"single",4000,5,0,1,"Verb",NA,"Verb",NA,1,"n","n",1969
"525",3,"18;11","10-25-2006","16:23:04","female",185,"single",3000,5,0,1,"Verb",NA,"Verb",NA,1,"n","n",1396
"526",3,"18;11","10-25-2006","16:23:04","female",186,"single",6000,0,3,NA,"Vis",NA,"Vis",NA,1,"n","n",2057
"527",3,"18;11","10-25-2006","16:23:04","female",187,"within",3000,5,0,3,"VerbVerb","Second","Verb","Second",1,"n","n",8174
"528",3,"18;11","10-25-2006","16:23:04","female",188,"within",3000,0,3,NA,"VisVis","Both","Vis","Second",0,"n","y",2997
"529",4,"19;0","10-26-2006","08:51:06","female",13,"single",3000,5,0,3,"Verb",NA,"Verb",NA,1,"n","n",2106
"530",4,"19;0","10-26-2006","08:51:06","female",14,"single",4000,5,0,4,"Verb",NA,"Verb",NA,1,"y","y",1705
"531",4,"19;0","10-26-2006","08:51:06","female",15,"cross",3000,5,3,3,"VerbVis","Both","Verb","First",0,"y","n",4882
"532",4,"19;0","10-26-2006","08:51:06","female",16,"cross",3000,5,3,NA,"VerbVis","Both","Vis","Second",1,"n","n",1923
"533",4,"19;0","10-26-2006","08:51:06","female",17,"single",6000,0,3,NA,"Vis",NA,"Vis",NA,0,"n","y",1398
"534",4,"19;0","10-26-2006","08:51:06","female",18,"single",3000,0,3,NA,"Vis",NA,"Vis",NA,1,"n","n",1272
"535",4,"19;0","10-26-2006","08:51:06","female",19,"cross",3000,5,3,NA,"VerbVis","Second","Vis","Second",1,"y","y",1205
"536",4,"19;0","10-26-2006","08:51:06","female",20,"within",3000,5,0,5,"VerbVerb","Second","Verb","Second",1,"n","n",1562
"537",4,"19;0","10-26-2006","08:51:06","female",21,"within",3000,5,0,5,"VerbVerb","Both","Verb","Second",1,"n","n",1388
"538",4,"19;0","10-26-2006","08:51:06","female",22,"cross",3000,5,3,1,"VerbVis","First","Verb","First",1,"y","y",1306
"539",4,"19;0","10-26-2006","08:51:06","female",23,"within",3000,0,3,NA,"VisVis","First","Vis","First",0,"n","y",1252
"540",4,"19;0","10-26-2006","08:51:06","female",24,"cross",3000,5,3,5,"VisVerb","Both","Verb","Second",1,"n","n",1742
"541",4,"19;0","10-26-2006","08:51:06","female",25,"within",3000,5,0,4,"VerbVerb","Both","Verb","Second",1,"y","y",2305
"542",4,"19;0","10-26-2006","08:51:06","female",26,"cross",3000,5,3,NA,"VisVerb","First","Vis","First",0,"n","y",1591
"543",4,"19;0","10-26-2006","08:51:06","female",27,"cross",3000,5,3,5,"VisVerb","Second","Verb","Second",1,"y","y",1243
"544",4,"19;0","10-26-2006","08:51:06","female",28,"cross",3000,5,3,NA,"VisVerb","Both","Vis","First",1,"n","n",2596
"545",4,"19;0","10-26-2006","08:51:06","female",29,"single",4000,0,3,NA,"Vis",NA,"Vis",NA,1,"n","n",1872
"546",4,"19;0","10-26-2006","08:51:06","female",30,"within",3000,0,3,NA,"VisVis","First","Vis","First",1,"y","y",1223
"547",4,"19;0","10-26-2006","08:51:06","female",31,"single",3000,0,3,NA,"Vis",NA,"Vis",NA,1,"y","y",3112
"548",4,"19;0","10-26-2006","08:51:06","female",32,"single",6000,5,0,5,"Verb",NA,"Verb",NA,1,"y","y",1346
"549",4,"19;0","10-26-2006","08:51:06","female",33,"cross",3000,5,3,5,"VisVerb","Both","Verb","Second",1,"y","y",1052
"550",4,"19;0","10-26-2006","08:51:06","female",34,"within",3000,5,0,4,"VerbVerb","Both","Verb","First",1,"n","n",2479
"551",4,"19;0","10-26-2006","08:51:06","female",35,"within",3000,0,3,NA,"VisVis","Second","Vis","Second",1,"n","n",1540
"552",4,"19;0","10-26-2006","08:51:06","female",36,"cross",3000,5,3,NA,"VisVerb","First","Vis","First",1,"y","y",1230
"553",4,"19;0","10-26-2006","08:51:06","female",37,"single",6000,5,0,2,"Verb",NA,"Verb",NA,1,"n","n",1526
"554",4,"19;0","10-26-2006","08:51:06","female",38,"within",3000,0,3,NA,"VisVis","Both","Vis","Second",0,"n","y",4054
"555",4,"19;0","10-26-2006","08:51:06","female",39,"within",3000,0,3,NA,"VisVis","Both","Vis","First",1,"n","n",1751
"556",4,"19;0","10-26-2006","08:51:06","female",40,"within",3000,5,0,3,"VerbVerb","Second","Verb","Second",1,"y","y",3041
"557",4,"19;0","10-26-2006","08:51:06","female",41,"within",3000,0,3,NA,"VisVis","Second","Vis","Second",1,"y","y",1239
"558",4,"19;0","10-26-2006","08:51:06","female",42,"cross",3000,5,3,NA,"VerbVis","Second","Vis","Second",1,"n","n",1659
"559",4,"19;0","10-26-2006","08:51:06","female",43,"cross",3000,5,3,2,"VerbVis","First","Verb","First",1,"n","n",1472
"560",4,"19;0","10-26-2006","08:51:06","female",44,"cross",3000,5,3,4,"VisVerb","Second","Verb","Second",1,"n","n",1525
"561",4,"19;0","10-26-2006","08:51:06","female",45,"within",3000,5,0,5,"VerbVerb","Both","Verb","First",1,"y","y",2388
"562",4,"19;0","10-26-2006","08:51:06","female",46,"cross",3000,5,3,4,"VerbVis","Both","Verb","First",0,"n","y",2897
"563",4,"19;0","10-26-2006","08:51:06","female",47,"cross",3000,5,3,NA,"VisVerb","Both","Vis","First",1,"y","y",2889
"564",4,"19;0","10-26-2006","08:51:06","female",48,"single",4000,5,0,4,"Verb",NA,"Verb",NA,1,"n","n",4828
"565",4,"19;0","10-26-2006","08:51:06","female",49,"single",4000,0,3,NA,"Vis",NA,"Vis",NA,1,"y","y",5384
"566",4,"19;0","10-26-2006","08:51:06","female",50,"cross",3000,5,3,NA,"VerbVis","Both","Vis","Second",1,"y","y",1769
"567",4,"19;0","10-26-2006","08:51:06","female",51,"within",3000,5,0,2,"VerbVerb","First","Verb","First",1,"n","n",3097
"568",4,"19;0","10-26-2006","08:51:06","female",52,"within",3000,0,3,NA,"VisVis","Both","Vis","First",1,"y","y",1630
"569",4,"19;0","10-26-2006","08:51:06","female",53,"single",3000,5,0,2,"Verb",NA,"Verb",NA,1,"y","y",1489
"570",4,"19;0","10-26-2006","08:51:06","female",54,"single",6000,0,3,NA,"Vis",NA,"Vis",NA,1,"y","y",1462
"571",4,"19;0","10-26-2006","08:51:06","female",55,"within",3000,0,3,NA,"VisVis","Both","Vis","Second",1,"y","y",3555
"572",4,"19;0","10-26-2006","08:51:06","female",56,"within",3000,5,0,1,"VerbVerb","First","Verb","First",1,"y","y",1289
"573",4,"19;0","10-26-2006","08:51:06","female",57,"cross",3000,5,3,NA,"VerbVis","Both","Vis","Second",1,"n","n",1239
"574",4,"19;0","10-26-2006","08:51:06","female",58,"cross",3000,5,3,1,"VisVerb","Both","Verb","Second",1,"y","y",1409
"575",4,"19;0","10-26-2006","08:51:06","female",59,"within",3000,0,3,NA,"VisVis","Second","Vis","Second",1,"y","y",1590
"576",4,"19;0","10-26-2006","08:51:06","female",60,"cross",3000,5,3,5,"VisVerb","Second","Verb","Second",1,"y","y",1436
"577",4,"19;0","10-26-2006","08:51:06","female",61,"single",4000,0,3,NA,"Vis",NA,"Vis",NA,1,"y","y",1778
"578",4,"19;0","10-26-2006","08:51:06","female",62,"within",3000,0,3,NA,"VisVis","First","Vis","First",0,"y","n",1271
"579",4,"19;0","10-26-2006","08:51:06","female",63,"cross",3000,5,3,2,"VerbVis","First","Verb","First",1,"y","y",1868
"580",4,"19;0","10-26-2006","08:51:06","female",64,"cross",3000,5,3,1,"VerbVis","Both","Verb","First",1,"y","y",1400
"581",4,"19;0","10-26-2006","08:51:06","female",65,"single",3000,0,3,NA,"Vis",NA,"Vis",NA,1,"y","y",1458
"582",4,"19;0","10-26-2006","08:51:06","female",66,"single",6000,0,3,NA,"Vis",NA,"Vis",NA,1,"n","n",1403
"583",4,"19;0","10-26-2006","08:51:06","female",67,"cross",3000,5,3,NA,"VerbVis","Second","Vis","Second",1,"n","n",1422
"584",4,"19;0","10-26-2006","08:51:06","female",68,"within",3000,5,0,2,"VerbVerb","Both","Verb","First",0,"y","n",3393
"585",4,"19;0","10-26-2006","08:51:06","female",69,"within",3000,0,3,NA,"VisVis","Both","Vis","Second",1,"y","y",1172
"586",4,"19;0","10-26-2006","08:51:06","female",70,"within",3000,0,3,NA,"VisVis","Both","Vis","First",0,"y","n",2836
"587",4,"19;0","10-26-2006","08:51:06","female",71,"single",4000,0,3,NA,"Vis",NA,"Vis",NA,1,"n","n",1240
"588",4,"19;0","10-26-2006","08:51:06","female",72,"single",4000,5,0,5,"Verb",NA,"Verb",NA,1,"y","y",1367
"589",4,"19;0","10-26-2006","08:51:06","female",73,"cross",3000,5,3,3,"VisVerb","Second","Verb","Second",0,"n","y",1913
"590",4,"19;0","10-26-2006","08:51:06","female",74,"within",3000,5,0,4,"VerbVerb","Both","Verb","First",1,"n","n",4618
"591",4,"19;0","10-26-2006","08:51:06","female",75,"cross",3000,5,3,NA,"VerbVis","Second","Vis","Second",0,"y","n",1985
"592",4,"19;0","10-26-2006","08:51:06","female",76,"cross",3000,5,3,4,"VisVerb","Both","Verb","Second",1,"n","n",2150
"593",4,"19;0","10-26-2006","08:51:06","female",77,"within",3000,5,0,5,"VerbVerb","Both","Verb","Second",1,"y","y",1579
"594",4,"19;0","10-26-2006","08:51:06","female",78,"within",3000,0,3,NA,"VisVis","First","Vis","First",1,"n","n",1228
"595",4,"19;0","10-26-2006","08:51:06","female",79,"cross",3000,5,3,NA,"VisVerb","Both","Vis","First",0,"y","n",5435
"596",4,"19;0","10-26-2006","08:51:06","female",80,"within",3000,5,0,4,"VerbVerb","Second","Verb","Second",1,"n","n",3618
"597",4,"19;0","10-26-2006","08:51:06","female",81,"cross",3000,5,3,NA,"VisVerb","First","Vis","First",1,"n","n",1653
"598",4,"19;0","10-26-2006","08:51:06","female",82,"cross",3000,5,3,NA,"VerbVis","Both","Vis","Second",1,"y","y",2132
"599",4,"19;0","10-26-2006","08:51:06","female",83,"single",6000,0,3,NA,"Vis",NA,"Vis",NA,1,"y","y",1944
"600",4,"19;0","10-26-2006","08:51:06","female",84,"single",3000,5,0,4,"Verb",NA,"Verb",NA,1,"y","y",1735
"601",4,"19;0","10-26-2006","08:51:06","female",85,"single",6000,5,0,3,"Verb",NA,"Verb",NA,0,"y","n",2731
"602",4,"19;0","10-26-2006","08:51:06","female",86,"cross",3000,5,3,3,"VerbVis","Both","Verb","First",1,"n","n",3381
"603",4,"19;0","10-26-2006","08:51:06","female",87,"within",3000,5,0,5,"VerbVerb","Second","Verb","Second",1,"y","y",1713
"604",4,"19;0","10-26-2006","08:51:06","female",88,"within",3000,5,0,4,"VerbVerb","First","Verb","First",0,"y","n",2816
"605",4,"19;0","10-26-2006","08:51:06","female",89,"within",3000,5,0,5,"VerbVerb","Both","Verb","Second",1,"n","n",2054
"606",4,"19;0","10-26-2006","08:51:06","female",90,"cross",3000,5,3,NA,"VisVerb","First","Vis","First",1,"y","y",1626
"607",4,"19;0","10-26-2006","08:51:06","female",91,"single",3000,0,3,NA,"Vis",NA,"Vis",NA,1,"n","n",1741
"608",4,"19;0","10-26-2006","08:51:06","female",92,"cross",3000,5,3,NA,"VisVerb","Both","Vis","First",1,"n","n",3273
"609",4,"19;0","10-26-2006","08:51:06","female",93,"within",3000,0,3,NA,"VisVis","Second","Vis","Second",1,"n","n",1586
"610",4,"19;0","10-26-2006","08:51:06","female",94,"within",3000,0,3,NA,"VisVis","Both","Vis","Second",1,"n","n",1336
"611",4,"19;0","10-26-2006","08:51:06","female",95,"single",3000,5,0,1,"Verb",NA,"Verb",NA,1,"n","n",1885
"612",4,"19;0","10-26-2006","08:51:06","female",96,"within",3000,0,3,NA,"VisVis","Both","Vis","First",0,"n","y",3354
"613",4,"19;0","10-26-2006","08:51:06","female",97,"within",3000,5,0,1,"VerbVerb","First","Verb","First",1,"n","n",1563
"614",4,"19;0","10-26-2006","08:51:06","female",98,"cross",3000,5,3,5,"VerbVis","First","Verb","First",1,"n","n",2206
"615",4,"19;0","10-26-2006","08:51:06","female",99,"single",4000,5,0,4,"Verb",NA,"Verb",NA,1,"n","n",3981
"616",4,"19;0","10-26-2006","08:51:06","female",100,"single",6000,5,0,5,"Verb",NA,"Verb",NA,1,"n","n",1785
"617",4,"19;0","10-26-2006","08:51:06","female",101,"within",3000,0,3,NA,"VisVis","Second","Vis","Second",1,"n","n",1207
"618",4,"19;0","10-26-2006","08:51:06","female",102,"cross",3000,5,3,4,"VisVerb","Both","Verb","Second",1,"n","n",3629
"619",4,"19;0","10-26-2006","08:51:06","female",103,"single",4000,5,0,3,"Verb",NA,"Verb",NA,1,"y","y",1926
"620",4,"19;0","10-26-2006","08:51:06","female",104,"cross",3000,5,3,NA,"VisVerb","Both","Vis","First",1,"y","y",3293
"621",4,"19;0","10-26-2006","08:51:06","female",105,"single",3000,5,0,4,"Verb",NA,"Verb",NA,0,"y","n",1639
"622",4,"19;0","10-26-2006","08:51:06","female",106,"cross",3000,5,3,3,"VisVerb","Both","Verb","Second",1,"y","y",4599
"623",4,"19;0","10-26-2006","08:51:06","female",107,"within",3000,5,0,5,"VerbVerb","Both","Verb","Second",1,"y","y",1596
"624",4,"19;0","10-26-2006","08:51:06","female",108,"single",3000,0,3,NA,"Vis",NA,"Vis",NA,1,"n","n",1242
"625",4,"19;0","10-26-2006","08:51:06","female",109,"cross",3000,5,3,5,"VisVerb","Second","Verb","Second",1,"n","n",2644
"626",4,"19;0","10-26-2006","08:51:06","female",110,"within",3000,0,3,NA,"VisVis","Both","Vis","Second",1,"n","n",1221
"627",4,"19;0","10-26-2006","08:51:06","female",111,"within",3000,5,0,5,"VerbVerb","First","Verb","First",1,"y","y",1441
"628",4,"19;0","10-26-2006","08:51:06","female",112,"cross",3000,5,3,NA,"VerbVis","Both","Vis","Second",1,"n","n",1701
"629",4,"19;0","10-26-2006","08:51:06","female",113,"single",4000,0,3,NA,"Vis",NA,"Vis",NA,1,"n","n",1147
"630",4,"19;0","10-26-2006","08:51:06","female",114,"cross",3000,5,3,NA,"VerbVis","Second","Vis","Second",1,"n","n",7996
"631",4,"19;0","10-26-2006","08:51:06","female",115,"within",3000,0,3,NA,"VisVis","First","Vis","First",1,"n","n",1150
"632",4,"19;0","10-26-2006","08:51:06","female",116,"within",3000,5,0,3,"VerbVerb","First","Verb","First",1,"n","n",2049
"633",4,"19;0","10-26-2006","08:51:06","female",117,"cross",3000,5,3,4,"VerbVis","First","Verb","First",1,"y","y",7281
"634",4,"19;0","10-26-2006","08:51:06","female",118,"cross",3000,5,3,3,"VerbVis","First","Verb","First",1,"n","n",2154
"635",4,"19;0","10-26-2006","08:51:06","female",119,"single",6000,0,3,NA,"Vis",NA,"Vis",NA,1,"n","n",1379
"636",4,"19;0","10-26-2006","08:51:06","female",120,"single",6000,5,0,1,"Verb",NA,"Verb",NA,1,"n","n",1282
"637",4,"19;0","10-26-2006","08:51:06","female",121,"single",3000,0,3,NA,"Vis",NA,"Vis",NA,1,"y","y",1304
"638",4,"19;0","10-26-2006","08:51:06","female",122,"within",3000,0,3,NA,"VisVis","Both","Vis","First",1,"y","y",5316
"639",4,"19;0","10-26-2006","08:51:06","female",123,"cross",3000,5,3,3,"VerbVis","Both","Verb","First",1,"y","y",2789
"640",4,"19;0","10-26-2006","08:51:06","female",124,"single",4000,5,0,3,"Verb",NA,"Verb",NA,1,"n","n",2950
"641",4,"19;0","10-26-2006","08:51:06","female",125,"within",3000,5,0,3,"VerbVerb","Both","Verb","First",0,"y","n",3428
"642",4,"19;0","10-26-2006","08:51:06","female",126,"within",3000,5,0,3,"VerbVerb","Both","Verb","Second",1,"n","n",2734
"643",4,"19;0","10-26-2006","08:51:06","female",127,"cross",3000,5,3,NA,"VisVerb","First","Vis","First",1,"y","y",1425
"644",4,"19;0","10-26-2006","08:51:06","female",128,"cross",3000,5,3,NA,"VerbVis","Second","Vis","Second",1,"y","y",1304
"645",4,"19;0","10-26-2006","08:51:06","female",129,"within",3000,0,3,NA,"VisVis","Both","Vis","First",1,"n","n",3159
"646",4,"19;0","10-26-2006","08:51:06","female",130,"single",3000,5,0,4,"Verb",NA,"Verb",NA,1,"n","n",1841
"647",4,"19;0","10-26-2006","08:51:06","female",131,"cross",3000,5,3,NA,"VisVerb","First","Vis","First",0,"n","y",1555
"648",4,"19;0","10-26-2006","08:51:06","female",132,"single",4000,0,3,NA,"Vis",NA,"Vis",NA,1,"y","y",1296
"649",4,"19;0","10-26-2006","08:51:06","female",133,"cross",3000,5,3,NA,"VerbVis","Both","Vis","Second",1,"y","y",1133
"650",4,"19;0","10-26-2006","08:51:06","female",134,"single",6000,5,0,1,"Verb",NA,"Verb",NA,1,"y","y",1345
"651",4,"19;0","10-26-2006","08:51:06","female",135,"within",3000,5,0,5,"VerbVerb","Both","Verb","First",1,"n","n",2811
"652",4,"19;0","10-26-2006","08:51:06","female",136,"within",3000,5,0,4,"VerbVerb","Second","Verb","Second",0,"n","y",2061
"653",4,"19;0","10-26-2006","08:51:06","female",137,"cross",3000,5,3,3,"VerbVis","Both","Verb","First",1,"n","n",4184
"654",4,"19;0","10-26-2006","08:51:06","female",138,"cross",3000,5,3,NA,"VisVerb","Both","Vis","First",1,"n","n",2470
"655",4,"19;0","10-26-2006","08:51:06","female",139,"single",6000,0,3,NA,"Vis",NA,"Vis",NA,1,"y","y",1464
"656",4,"19;0","10-26-2006","08:51:06","female",140,"cross",3000,5,3,4,"VisVerb","Second","Verb","Second",0,"y","n",3010
"657",4,"19;0","10-26-2006","08:51:06","female",141,"within",3000,0,3,NA,"VisVis","Second","Vis","Second",1,"y","y",1182
"658",4,"19;0","10-26-2006","08:51:06","female",142,"within",3000,0,3,NA,"VisVis","Both","Vis","Second",1,"y","y",3566
"659",4,"19;0","10-26-2006","08:51:06","female",143,"within",3000,5,0,1,"VerbVerb","Second","Verb","Second",1,"y","y",1360
"660",4,"19;0","10-26-2006","08:51:06","female",144,"within",3000,0,3,NA,"VisVis","First","Vis","First",1,"y","y",1462
"661",4,"19;0","10-26-2006","08:51:06","female",145,"single",4000,0,3,NA,"Vis",NA,"Vis",NA,1,"n","n",1481
"662",4,"19;0","10-26-2006","08:51:06","female",146,"single",6000,5,0,3,"Verb",NA,"Verb",NA,1,"n","n",3555
"663",4,"19;0","10-26-2006","08:51:06","female",147,"cross",3000,5,3,NA,"VerbVis","Second","Vis","Second",1,"y","y",1288
"664",4,"19;0","10-26-2006","08:51:06","female",148,"within",3000,0,3,NA,"VisVis","Both","Vis","First",1,"n","n",2565
"665",4,"19;0","10-26-2006","08:51:06","female",149,"cross",3000,5,3,NA,"VerbVis","Second","Vis","Second",1,"n","n",2612
"666",4,"19;0","10-26-2006","08:51:06","female",150,"single",3000,0,3,NA,"Vis",NA,"Vis",NA,1,"y","y",1359
"667",4,"19;0","10-26-2006","08:51:06","female",151,"cross",3000,5,3,5,"VerbVis","First","Verb","First",1,"n","n",1566
"668",4,"19;0","10-26-2006","08:51:06","female",152,"within",3000,0,3,NA,"VisVis","Both","Vis","First",1,"y","y",3043
"669",4,"19;0","10-26-2006","08:51:06","female",153,"cross",3000,5,3,5,"VisVerb","Both","Verb","Second",1,"y","y",1337
"670",4,"19;0","10-26-2006","08:51:06","female",154,"cross",3000,5,3,2,"VisVerb","Second","Verb","Second",1,"n","n",1325
"671",4,"19;0","10-26-2006","08:51:06","female",155,"cross",3000,5,3,NA,"VisVerb","Both","Vis","First",1,"y","y",1463
"672",4,"19;0","10-26-2006","08:51:06","female",156,"cross",3000,5,3,NA,"VerbVis","Both","Vis","Second",1,"n","n",1399
"673",4,"19;0","10-26-2006","08:51:06","female",157,"single",6000,0,3,NA,"Vis",NA,"Vis",NA,1,"y","y",1491
"674",4,"19;0","10-26-2006","08:51:06","female",158,"cross",3000,5,3,1,"VisVerb","Second","Verb","Second",0,"y","n",1315
"675",4,"19;0","10-26-2006","08:51:06","female",159,"within",3000,5,0,2,"VerbVerb","First","Verb","First",1,"n","n",1826
"676",4,"19;0","10-26-2006","08:51:06","female",160,"within",3000,5,0,2,"VerbVerb","Both","Verb","First",1,"n","n",2819
"677",4,"19;0","10-26-2006","08:51:06","female",161,"single",4000,0,3,NA,"Vis",NA,"Vis",NA,1,"y","y",1761
"678",4,"19;0","10-26-2006","08:51:06","female",162,"single",6000,5,0,5,"Verb",NA,"Verb",NA,1,"y","y",1371
"679",4,"19;0","10-26-2006","08:51:06","female",163,"within",3000,0,3,NA,"VisVis","Both","Vis","Second",1,"n","n",1384
"680",4,"19;0","10-26-2006","08:51:06","female",164,"cross",3000,5,3,4,"VerbVis","First","Verb","First",1,"y","y",1399
"681",4,"19;0","10-26-2006","08:51:06","female",165,"cross",3000,5,3,NA,"VisVerb","First","Vis","First",1,"n","n",1144
"682",4,"19;0","10-26-2006","08:51:06","female",166,"within",3000,0,3,NA,"VisVis","First","Vis","First",1,"y","y",1324
"683",4,"19;0","10-26-2006","08:51:06","female",167,"single",6000,0,3,NA,"Vis",NA,"Vis",NA,1,"n","n",1228
"684",4,"19;0","10-26-2006","08:51:06","female",168,"single",3000,5,0,2,"Verb",NA,"Verb",NA,1,"y","y",1439
"685",4,"19;0","10-26-2006","08:51:06","female",169,"within",3000,0,3,NA,"VisVis","First","Vis","First",1,"n","n",1228
"686",4,"19;0","10-26-2006","08:51:06","female",170,"within",3000,0,3,NA,"VisVis","Second","Vis","Second",1,"y","y",2611
"687",4,"19;0","10-26-2006","08:51:06","female",171,"single",3000,0,3,NA,"Vis",NA,"Vis",NA,1,"n","n",2230
"688",4,"19;0","10-26-2006","08:51:06","female",172,"within",3000,5,0,4,"VerbVerb","Both","Verb","Second",1,"n","n",1542
"689",4,"19;0","10-26-2006","08:51:06","female",173,"within",3000,5,0,4,"VerbVerb","Second","Verb","Second",0,"n","y",5483
"690",4,"19;0","10-26-2006","08:51:06","female",174,"within",3000,5,0,1,"VerbVerb","First","Verb","First",1,"y","y",1646
"691",4,"19;0","10-26-2006","08:51:06","female",175,"within",3000,5,0,4,"VerbVerb","Second","Verb","Second",1,"y","y",2475
"692",4,"19;0","10-26-2006","08:51:06","female",176,"within",3000,5,0,4,"VerbVerb","Both","Verb","Second",0,"y","n",3611
"693",4,"19;0","10-26-2006","08:51:06","female",177,"single",4000,5,0,4,"Verb",NA,"Verb",NA,1,"y","y",1381
"694",4,"19;0","10-26-2006","08:51:06","female",178,"cross",3000,5,3,NA,"VisVerb","Both","Vis","First",1,"n","n",1594
"695",4,"19;0","10-26-2006","08:51:06","female",179,"within",3000,0,3,NA,"VisVis","Second","Vis","Second",1,"n","n",3274
"696",4,"19;0","10-26-2006","08:51:06","female",180,"cross",3000,5,3,NA,"VerbVis","Both","Vis","Second",1,"y","y",3825
"697",4,"19;0","10-26-2006","08:51:06","female",181,"single",4000,5,0,3,"Verb",NA,"Verb",NA,1,"n","n",2992
"698",4,"19;0","10-26-2006","08:51:06","female",182,"within",3000,5,0,4,"VerbVerb","Both","Verb","First",1,"y","y",2443
"699",4,"19;0","10-26-2006","08:51:06","female",183,"cross",3000,5,3,4,"VerbVis","Both","Verb","First",0,"y","n",3697
"700",4,"19;0","10-26-2006","08:51:06","female",184,"cross",3000,5,3,NA,"VisVerb","First","Vis","First",1,"y","y",2304
"701",4,"19;0","10-26-2006","08:51:06","female",185,"within",3000,0,3,NA,"VisVis","Both","Vis","Second",1,"y","y",1429
"702",4,"19;0","10-26-2006","08:51:06","female",186,"cross",3000,5,3,1,"VisVerb","Both","Verb","Second",1,"n","n",1758
"703",4,"19;0","10-26-2006","08:51:06","female",187,"cross",3000,5,3,1,"VerbVis","Both","Verb","First",1,"n","n",1468
"704",4,"19;0","10-26-2006","08:51:06","female",188,"single",3000,5,0,4,"Verb",NA,"Verb",NA,1,"n","n",1852
"705",5,"19;3","10-26-2006","12:13:54","male",13,"within",3000,0,3,NA,"VisVis","Second","Vis","Second",0,"n","y",1335
"706",5,"19;3","10-26-2006","12:13:54","male",14,"cross",3000,5,3,NA,"VerbVis","Both","Vis","Second",1,"n","n",2199
"707",5,"19;3","10-26-2006","12:13:54","male",15,"within",3000,0,3,NA,"VisVis","Second","Vis","Second",1,"y","y",1439
"708",5,"19;3","10-26-2006","12:13:54","male",16,"single",3000,5,0,2,"Verb",NA,"Verb",NA,1,"y","y",2255
"709",5,"19;3","10-26-2006","12:13:54","male",17,"single",3000,5,0,5,"Verb",NA,"Verb",NA,1,"n","n",2528
"710",5,"19;3","10-26-2006","12:13:54","male",18,"within",3000,5,0,5,"VerbVerb","Second","Verb","Second",1,"y","y",1750
"711",5,"19;3","10-26-2006","12:13:54","male",19,"single",6000,0,3,NA,"Vis",NA,"Vis",NA,0,"n","y",1428
"712",5,"19;3","10-26-2006","12:13:54","male",20,"single",4000,0,3,NA,"Vis",NA,"Vis",NA,1,"n","n",1625
"713",5,"19;3","10-26-2006","12:13:54","male",21,"cross",3000,5,3,5,"VerbVis","Both","Verb","First",1,"n","n",2504
"714",5,"19;3","10-26-2006","12:13:54","male",22,"cross",3000,5,3,1,"VerbVis","First","Verb","First",1,"n","n",1958
"715",5,"19;3","10-26-2006","12:13:54","male",23,"single",6000,0,3,NA,"Vis",NA,"Vis",NA,1,"y","y",2002
"716",5,"19;3","10-26-2006","12:13:54","male",24,"within",3000,5,0,5,"VerbVerb","Both","Verb","Second",0,"n","y",4113
"717",5,"19;3","10-26-2006","12:13:54","male",25,"single",4000,5,0,4,"Verb",NA,"Verb",NA,0,"n","y",2492
"718",5,"19;3","10-26-2006","12:13:54","male",26,"single",6000,5,0,4,"Verb",NA,"Verb",NA,1,"y","y",3353
"719",5,"19;3","10-26-2006","12:13:54","male",27,"cross",3000,5,3,4,"VisVerb","Second","Verb","Second",1,"n","n",1685
"720",5,"19;3","10-26-2006","12:13:54","male",28,"cross",3000,5,3,NA,"VisVerb","Both","Vis","First",1,"y","y",2621
"721",5,"19;3","10-26-2006","12:13:54","male",29,"single",3000,0,3,NA,"Vis",NA,"Vis",NA,0,"n","y",5086
"722",5,"19;3","10-26-2006","12:13:54","male",30,"single",4000,0,3,NA,"Vis",NA,"Vis",NA,1,"y","y",1380
"723",5,"19;3","10-26-2006","12:13:54","male",31,"cross",3000,5,3,NA,"VisVerb","Both","Vis","First",1,"n","n",2075
"724",5,"19;3","10-26-2006","12:13:54","male",32,"within",3000,0,3,NA,"VisVis","First","Vis","First",1,"y","y",1621
"725",5,"19;3","10-26-2006","12:13:54","male",33,"within",3000,0,3,NA,"VisVis","Both","Vis","Second",1,"y","y",1873
"726",5,"19;3","10-26-2006","12:13:54","male",34,"cross",3000,5,3,NA,"VisVerb","First","Vis","First",1,"y","y",1449
"727",5,"19;3","10-26-2006","12:13:54","male",35,"cross",3000,5,3,5,"VisVerb","Second","Verb","Second",1,"y","y",2930
"728",5,"19;3","10-26-2006","12:13:54","male",36,"single",6000,5,0,4,"Verb",NA,"Verb",NA,1,"n","n",2903
"729",5,"19;3","10-26-2006","12:13:54","male",37,"cross",3000,5,3,NA,"VerbVis","Both","Vis","Second",1,"y","y",2931
"730",5,"19;3","10-26-2006","12:13:54","male",38,"within",3000,0,3,NA,"VisVis","Both","Vis","First",1,"n","n",2229
"731",5,"19;3","10-26-2006","12:13:54","male",39,"cross",3000,5,3,NA,"VerbVis","Second","Vis","Second",1,"y","y",1385
"732",5,"19;3","10-26-2006","12:13:54","male",40,"cross",3000,5,3,NA,"VisVerb","First","Vis","First",1,"n","n",1255
"733",5,"19;3","10-26-2006","12:13:54","male",41,"cross",3000,5,3,1,"VisVerb","Both","Verb","Second",1,"n","n",1727
"734",5,"19;3","10-26-2006","12:13:54","male",42,"within",3000,5,0,1,"VerbVerb","Second","Verb","Second",1,"n","n",1647
"735",5,"19;3","10-26-2006","12:13:54","male",43,"within",3000,0,3,NA,"VisVis","Both","Vis","Second",0,"n","y",1866
"736",5,"19;3","10-26-2006","12:13:54","male",44,"cross",3000,5,3,5,"VerbVis","First","Verb","First",1,"y","y",2832
"737",5,"19;3","10-26-2006","12:13:54","male",45,"within",3000,5,0,5,"VerbVerb","First","Verb","First",1,"y","y",1848
"738",5,"19;3","10-26-2006","12:13:54","male",46,"within",3000,0,3,NA,"VisVis","Both","Vis","First",1,"y","y",1596
"739",5,"19;3","10-26-2006","12:13:54","male",47,"cross",3000,5,3,5,"VerbVis","Both","Verb","First",1,"y","y",1909
"740",5,"19;3","10-26-2006","12:13:54","male",48,"within",3000,5,0,3,"VerbVerb","Both","Verb","Second",0,"y","n",3374
"741",5,"19;3","10-26-2006","12:13:54","male",49,"within",3000,5,0,1,"VerbVerb","First","Verb","First",1,"n","n",2281
"742",5,"19;3","10-26-2006","12:13:54","male",50,"within",3000,0,3,NA,"VisVis","First","Vis","First",1,"n","n",1631
"743",5,"19;3","10-26-2006","12:13:54","male",51,"within",3000,5,0,2,"VerbVerb","Both","Verb","First",0,"y","n",4053
"744",5,"19;3","10-26-2006","12:13:54","male",52,"single",4000,5,0,1,"Verb",NA,"Verb",NA,1,"y","y",2026
"745",5,"19;3","10-26-2006","12:13:54","male",53,"within",3000,5,0,5,"VerbVerb","Both","Verb","First",1,"n","n",2164
"746",5,"19;3","10-26-2006","12:13:54","male",54,"cross",3000,5,3,NA,"VerbVis","Second","Vis","Second",1,"n","n",1573
"747",5,"19;3","10-26-2006","12:13:54","male",55,"single",3000,0,3,NA,"Vis",NA,"Vis",NA,1,"y","y",1500
"748",5,"19;3","10-26-2006","12:13:54","male",56,"cross",3000,5,3,2,"VisVerb","Both","Verb","Second",0,"y","n",2525
"749",5,"19;3","10-26-2006","12:13:54","male",57,"cross",3000,5,3,2,"VisVerb","Second","Verb","Second",1,"n","n",1737
"750",5,"19;3","10-26-2006","12:13:54","male",58,"single",3000,5,0,4,"Verb",NA,"Verb",NA,1,"y","y",2991
"751",5,"19;3","10-26-2006","12:13:54","male",59,"single",6000,0,3,NA,"Vis",NA,"Vis",NA,1,"n","n",2825
"752",5,"19;3","10-26-2006","12:13:54","male",60,"cross",3000,5,3,2,"VisVerb","Both","Verb","Second",1,"n","n",2231
"753",5,"19;3","10-26-2006","12:13:54","male",61,"within",3000,0,3,NA,"VisVis","Both","Vis","Second",0,"n","y",3766
"754",5,"19;3","10-26-2006","12:13:54","male",62,"cross",3000,5,3,4,"VerbVis","Both","Verb","First",1,"n","n",2631
"755",5,"19;3","10-26-2006","12:13:54","male",63,"cross",3000,5,3,NA,"VisVerb","Both","Vis","First",0,"n","y",2281
"756",5,"19;3","10-26-2006","12:13:54","male",64,"within",3000,5,0,1,"VerbVerb","Both","Verb","Second",1,"y","y",1873
"757",5,"19;3","10-26-2006","12:13:54","male",65,"cross",3000,5,3,NA,"VisVerb","First","Vis","First",0,"n","y",1486
"758",5,"19;3","10-26-2006","12:13:54","male",66,"single",6000,0,3,NA,"Vis",NA,"Vis",NA,0,"y","n",2560
"759",5,"19;3","10-26-2006","12:13:54","male",67,"cross",3000,5,3,NA,"VerbVis","Second","Vis","Second",0,"n","y",1647
"760",5,"19;3","10-26-2006","12:13:54","male",68,"within",3000,5,0,4,"VerbVerb","Second","Verb","Second",1,"n","n",2814
"761",5,"19;3","10-26-2006","12:13:54","male",69,"within",3000,0,3,NA,"VisVis","First","Vis","First",1,"n","n",3377
"762",5,"19;3","10-26-2006","12:13:54","male",70,"cross",3000,5,3,2,"VerbVis","Both","Verb","First",0,"y","n",5933
"763",5,"19;3","10-26-2006","12:13:54","male",71,"within",3000,5,0,5,"VerbVerb","First","Verb","First",1,"y","y",3905
"764",5,"19;3","10-26-2006","12:13:54","male",72,"cross",3000,5,3,1,"VisVerb","Both","Verb","Second",1,"y","y",1866
"765",5,"19;3","10-26-2006","12:13:54","male",73,"within",3000,0,3,NA,"VisVis","Both","Vis","Second",0,"y","n",1741
"766",5,"19;3","10-26-2006","12:13:54","male",74,"within",3000,0,3,NA,"VisVis","Both","Vis","First",0,"y","n",1961
"767",5,"19;3","10-26-2006","12:13:54","male",75,"single",6000,5,0,3,"Verb",NA,"Verb",NA,1,"y","y",3039
"768",5,"19;3","10-26-2006","12:13:54","male",76,"within",3000,5,0,4,"VerbVerb","Second","Verb","Second",1,"y","y",2375
"769",5,"19;3","10-26-2006","12:13:54","male",77,"cross",3000,5,3,4,"VisVerb","Second","Verb","Second",0,"y","n",2457
"770",5,"19;3","10-26-2006","12:13:54","male",78,"single",3000,5,0,5,"Verb",NA,"Verb",NA,1,"n","n",2138
"771",5,"19;3","10-26-2006","12:13:54","male",79,"single",4000,0,3,NA,"Vis",NA,"Vis",NA,1,"n","n",1511
"772",5,"19;3","10-26-2006","12:13:54","male",80,"within",3000,5,0,3,"VerbVerb","Both","Verb","Second",1,"n","n",3235
"773",5,"19;3","10-26-2006","12:13:54","male",81,"within",3000,0,3,NA,"VisVis","Second","Vis","Second",0,"n","y",2101
"774",5,"19;3","10-26-2006","12:13:54","male",82,"single",4000,5,0,2,"Verb",NA,"Verb",NA,0,"y","n",3305
"775",5,"19;3","10-26-2006","12:13:54","male",83,"within",3000,0,3,NA,"VisVis","First","Vis","First",0,"y","n",2685
"776",5,"19;3","10-26-2006","12:13:54","male",84,"within",3000,5,0,4,"VerbVerb","Both","Verb","First",0,"n","y",1806
"777",5,"19;3","10-26-2006","12:13:54","male",85,"cross",3000,5,3,3,"VerbVis","First","Verb","First",1,"n","n",3662
"778",5,"19;3","10-26-2006","12:13:54","male",86,"cross",3000,5,3,NA,"VerbVis","Both","Vis","Second",1,"y","y",1471
"779",5,"19;3","10-26-2006","12:13:54","male",87,"cross",3000,5,3,NA,"VisVerb","First","Vis","First",1,"y","y",1384
"780",5,"19;3","10-26-2006","12:13:54","male",88,"cross",3000,5,3,NA,"VerbVis","Both","Vis","Second",0,"n","y",1512
"781",5,"19;3","10-26-2006","12:13:54","male",89,"single",3000,0,3,NA,"Vis",NA,"Vis",NA,0,"y","n",1372
"782",5,"19;3","10-26-2006","12:13:54","male",90,"single",6000,5,0,3,"Verb",NA,"Verb",NA,1,"n","n",6071
"783",5,"19;3","10-26-2006","12:13:54","male",91,"single",4000,0,3,NA,"Vis",NA,"Vis",NA,1,"y","y",1561
"784",5,"19;3","10-26-2006","12:13:54","male",92,"within",3000,5,0,1,"VerbVerb","First","Verb","First",1,"n","n",1604
"785",5,"19;3","10-26-2006","12:13:54","male",93,"cross",3000,5,3,4,"VerbVis","First","Verb","First",1,"y","y",2618
"786",5,"19;3","10-26-2006","12:13:54","male",94,"cross",3000,5,3,NA,"VisVerb","Both","Vis","First",0,"y","n",3203
"787",5,"19;3","10-26-2006","12:13:54","male",95,"within",3000,5,0,1,"VerbVerb","Both","Verb","First",1,"y","y",2555
"788",5,"19;3","10-26-2006","12:13:54","male",96,"within",3000,0,3,NA,"VisVis","Second","Vis","Second",1,"y","y",1224
"789",5,"19;3","10-26-2006","12:13:54","male",97,"within",3000,0,3,NA,"VisVis","Both","Vis","First",0,"n","y",1286
"790",5,"19;3","10-26-2006","12:13:54","male",98,"single",4000,5,0,4,"Verb",NA,"Verb",NA,1,"n","n",2896
"791",5,"19;3","10-26-2006","12:13:54","male",99,"cross",3000,5,3,NA,"VerbVis","Second","Vis","Second",1,"y","y",1293
"792",5,"19;3","10-26-2006","12:13:54","male",100,"single",3000,0,3,NA,"Vis",NA,"Vis",NA,0,"n","y",1307
"793",5,"19;3","10-26-2006","12:13:54","male",101,"within",3000,0,3,NA,"VisVis","First","Vis","First",1,"y","y",961
"794",5,"19;3","10-26-2006","12:13:54","male",102,"within",3000,0,3,NA,"VisVis","Both","Vis","Second",1,"y","y",1183
"795",5,"19;3","10-26-2006","12:13:54","male",103,"within",3000,0,3,NA,"VisVis","Both","Vis","Second",1,"n","n",1365
"796",5,"19;3","10-26-2006","12:13:54","male",104,"within",3000,5,0,5,"VerbVerb","Second","Verb","Second",1,"y","y",1368
"797",5,"19;3","10-26-2006","12:13:54","male",105,"cross",3000,5,3,5,"VisVerb","Both","Verb","Second",1,"y","y",1432
"798",5,"19;3","10-26-2006","12:13:54","male",106,"single",3000,5,0,2,"Verb",NA,"Verb",NA,1,"n","n",2036
"799",5,"19;3","10-26-2006","12:13:54","male",107,"cross",3000,5,3,3,"VisVerb","Both","Verb","Second",1,"n","n",3436
"800",5,"19;3","10-26-2006","12:13:54","male",108,"single",4000,0,3,NA,"Vis",NA,"Vis",NA,1,"n","n",1378
"801",5,"19;3","10-26-2006","12:13:54","male",109,"within",3000,5,0,4,"VerbVerb","Second","Verb","Second",1,"n","n",2675
"802",5,"19;3","10-26-2006","12:13:54","male",110,"within",3000,5,0,5,"VerbVerb","Both","Verb","Second",1,"n","n",4071
"803",5,"19;3","10-26-2006","12:13:54","male",111,"cross",3000,5,3,5,"VerbVis","First","Verb","First",0,"n","y",1409
"804",5,"19;3","10-26-2006","12:13:54","male",112,"cross",3000,5,3,NA,"VisVerb","First","Vis","First",0,"n","y",1061
"805",5,"19;3","10-26-2006","12:13:54","male",113,"cross",3000,5,3,NA,"VerbVis","Both","Vis","Second",1,"y","y",1305
"806",5,"19;3","10-26-2006","12:13:54","male",114,"within",3000,5,0,1,"VerbVerb","Both","Verb","First",1,"n","n",1995
"807",5,"19;3","10-26-2006","12:13:54","male",115,"cross",3000,5,3,1,"VisVerb","Second","Verb","Second",1,"n","n",7993
"808",5,"19;3","10-26-2006","12:13:54","male",116,"cross",3000,5,3,NA,"VisVerb","First","Vis","First",1,"y","y",2706
"809",5,"19;3","10-26-2006","12:13:54","male",117,"single",4000,5,0,1,"Verb",NA,"Verb",NA,1,"n","n",1580
"810",5,"19;3","10-26-2006","12:13:54","male",118,"within",3000,5,0,5,"VerbVerb","Both","Verb","Second",0,"y","n",3313
"811",5,"19;3","10-26-2006","12:13:54","male",119,"within",3000,0,3,NA,"VisVis","Both","Vis","First",0,"y","n",1228
"812",5,"19;3","10-26-2006","12:13:54","male",120,"within",3000,5,0,4,"VerbVerb","First","Verb","First",1,"n","n",4330
"813",5,"19;3","10-26-2006","12:13:54","male",121,"single",4000,0,3,NA,"Vis",NA,"Vis",NA,1,"y","y",1606
"814",5,"19;3","10-26-2006","12:13:54","male",122,"cross",3000,5,3,NA,"VerbVis","Second","Vis","Second",1,"n","n",1822
"815",5,"19;3","10-26-2006","12:13:54","male",123,"cross",3000,5,3,NA,"VerbVis","Both","Vis","Second",1,"n","n",1166
"816",5,"19;3","10-26-2006","12:13:54","male",124,"cross",3000,5,3,3,"VerbVis","Both","Verb","First",1,"n","n",2381
"817",5,"19;3","10-26-2006","12:13:54","male",125,"within",3000,0,3,NA,"VisVis","Second","Vis","Second",0,"y","n",1316
"818",5,"19;3","10-26-2006","12:13:54","male",126,"within",3000,0,3,NA,"VisVis","Both","Vis","First",0,"n","y",1087
"819",5,"19;3","10-26-2006","12:13:54","male",127,"single",6000,5,0,3,"Verb",NA,"Verb",NA,0,"y","n",4945
"820",5,"19;3","10-26-2006","12:13:54","male",128,"single",3000,0,3,NA,"Vis",NA,"Vis",NA,1,"n","n",1417
"821",5,"19;3","10-26-2006","12:13:54","male",129,"cross",3000,5,3,NA,"VisVerb","Both","Vis","First",1,"n","n",1707
"822",5,"19;3","10-26-2006","12:13:54","male",130,"single",4000,5,0,3,"Verb",NA,"Verb",NA,1,"y","y",3158
"823",5,"19;3","10-26-2006","12:13:54","male",131,"within",3000,5,0,4,"VerbVerb","First","Verb","First",0,"y","n",1612
"824",5,"19;3","10-26-2006","12:13:54","male",132,"within",3000,0,3,NA,"VisVis","First","Vis","First",1,"n","n",1672
"825",5,"19;3","10-26-2006","12:13:54","male",133,"cross",3000,5,3,NA,"VerbVis","Second","Vis","Second",1,"y","y",2040
"826",5,"19;3","10-26-2006","12:13:54","male",134,"cross",3000,5,3,2,"VisVerb","Second","Verb","Second",1,"y","y",3408
"827",5,"19;3","10-26-2006","12:13:54","male",135,"single",6000,5,0,3,"Verb",NA,"Verb",NA,1,"n","n",3135
"828",5,"19;3","10-26-2006","12:13:54","male",136,"cross",3000,5,3,NA,"VisVerb","Both","Vis","First",1,"y","y",3128
"829",5,"19;3","10-26-2006","12:13:54","male",137,"cross",3000,5,3,5,"VerbVis","Both","Verb","First",1,"y","y",1937
"830",5,"19;3","10-26-2006","12:13:54","male",138,"single",6000,0,3,NA,"Vis",NA,"Vis",NA,0,"n","y",1827
"831",5,"19;3","10-26-2006","12:13:54","male",139,"single",3000,0,3,NA,"Vis",NA,"Vis",NA,1,"y","y",2404
"832",5,"19;3","10-26-2006","12:13:54","male",140,"within",3000,5,0,5,"VerbVerb","Both","Verb","First",1,"y","y",4306
"833",5,"19;3","10-26-2006","12:13:54","male",141,"single",3000,5,0,5,"Verb",NA,"Verb",NA,1,"y","y",1796
"834",5,"19;3","10-26-2006","12:13:54","male",142,"cross",3000,5,3,3,"VerbVis","First","Verb","First",1,"y","y",2258
"835",5,"19;3","10-26-2006","12:13:54","male",143,"within",3000,0,3,NA,"VisVis","Second","Vis","Second",1,"n","n",3065
"836",5,"19;3","10-26-2006","12:13:54","male",144,"single",6000,0,3,NA,"Vis",NA,"Vis",NA,1,"y","y",4911
"837",5,"19;3","10-26-2006","12:13:54","male",145,"within",3000,5,0,3,"VerbVerb","Both","Verb","First",1,"y","y",3127
"838",5,"19;3","10-26-2006","12:13:54","male",146,"cross",3000,5,3,NA,"VisVerb","First","Vis","First",1,"n","n",3786
"839",5,"19;3","10-26-2006","12:13:54","male",147,"within",3000,5,0,4,"VerbVerb","Both","Verb","Second",1,"n","n",3009
"840",5,"19;3","10-26-2006","12:13:54","male",148,"within",3000,0,3,NA,"VisVis","First","Vis","First",1,"y","y",1739
"841",5,"19;3","10-26-2006","12:13:54","male",149,"cross",3000,5,3,NA,"VerbVis","Both","Vis","Second",1,"y","y",1725
"842",5,"19;3","10-26-2006","12:13:54","male",150,"within",3000,5,0,5,"VerbVerb","First","Verb","First",1,"y","y",1697
"843",5,"19;3","10-26-2006","12:13:54","male",151,"within",3000,5,0,3,"VerbVerb","Second","Verb","Second",1,"y","y",2062
"844",5,"19;3","10-26-2006","12:13:54","male",152,"within",3000,5,0,2,"VerbVerb","Both","Verb","Second",1,"y","y",2247
"845",5,"19;3","10-26-2006","12:13:54","male",153,"single",3000,5,0,1,"Verb",NA,"Verb",NA,1,"y","y",3226
"846",5,"19;3","10-26-2006","12:13:54","male",154,"cross",3000,5,3,NA,"VerbVis","Second","Vis","Second",0,"n","y",2018
"847",5,"19;3","10-26-2006","12:13:54","male",155,"cross",3000,5,3,NA,"VisVerb","First","Vis","First",1,"y","y",2663
"848",5,"19;3","10-26-2006","12:13:54","male",156,"cross",3000,5,3,4,"VerbVis","First","Verb","First",1,"n","n",2765
"849",5,"19;3","10-26-2006","12:13:54","male",157,"cross",3000,5,3,1,"VisVerb","Both","Verb","Second",1,"y","y",2939
"850",5,"19;3","10-26-2006","12:13:54","male",158,"within",3000,0,3,NA,"VisVis","Second","Vis","Second",0,"n","y",1435
"851",5,"19;3","10-26-2006","12:13:54","male",159,"cross",3000,5,3,2,"VerbVis","Both","Verb","First",0,"y","n",2757
"852",5,"19;3","10-26-2006","12:13:54","male",160,"single",3000,5,0,1,"Verb",NA,"Verb",NA,1,"n","n",1680
"853",5,"19;3","10-26-2006","12:13:54","male",161,"cross",3000,5,3,3,"VerbVis","First","Verb","First",1,"y","y",4284
"854",5,"19;3","10-26-2006","12:13:54","male",162,"cross",3000,5,3,3,"VisVerb","Both","Verb","Second",0,"n","y",3240
"855",5,"19;3","10-26-2006","12:13:54","male",163,"cross",3000,5,3,2,"VisVerb","Second","Verb","Second",1,"y","y",2442
"856",5,"19;3","10-26-2006","12:13:54","male",164,"single",3000,0,3,NA,"Vis",NA,"Vis",NA,0,"n","y",1521
"857",5,"19;3","10-26-2006","12:13:54","male",165,"single",4000,5,0,3,"Verb",NA,"Verb",NA,1,"y","y",2168
"858",5,"19;3","10-26-2006","12:13:54","male",166,"cross",3000,5,3,NA,"VisVerb","Both","Vis","First",1,"y","y",1671
"859",5,"19;3","10-26-2006","12:13:54","male",167,"within",3000,0,3,NA,"VisVis","Both","Vis","Second",0,"n","y",1625
"860",5,"19;3","10-26-2006","12:13:54","male",168,"within",3000,0,3,NA,"VisVis","Second","Vis","Second",1,"y","y",2345
"861",5,"19;3","10-26-2006","12:13:54","male",169,"cross",3000,5,3,NA,"VerbVis","Both","Vis","Second",1,"n","n",861
"862",5,"19;3","10-26-2006","12:13:54","male",170,"within",3000,0,3,NA,"VisVis","Both","Vis","First",0,"n","y",1956
"863",5,"19;3","10-26-2006","12:13:54","male",171,"within",3000,0,3,NA,"VisVis","First","Vis","First",0,"n","y",2922
"864",5,"19;3","10-26-2006","12:13:54","male",172,"single",6000,5,0,1,"Verb",NA,"Verb",NA,1,"y","y",3435
"865",5,"19;3","10-26-2006","12:13:54","male",173,"within",3000,0,3,NA,"VisVis","Both","Vis","Second",1,"y","y",1752
"866",5,"19;3","10-26-2006","12:13:54","male",174,"single",6000,5,0,3,"Verb",NA,"Verb",NA,1,"n","n",4990
