Subject	Age	Sex	Trial	gap1	gap2	gap3	gap4	gap5	gap6	gap7	gap8	position	Accuracy	CorrectR	Resp	RT	Type	pre	post	TotalIsolation	TotalTime
1	32	female	91	7	1	3	6	2	5	4	0	1	0	ur	p	1383	yes	-	7	7	20200
1	32	female	64	5	1	2	6	0	7	3	4	1	1	ur	r	868	yes	-	5	5	20200
1	32	female	79	7	2	0	1	5	3	6	4	1	1	ur	r	822	yes	-	7	7	20200
1	32	female	82	3	6	5	2	7	4	1	0	1	1	ur	r	551	yes	-	3	3	20200
1	32	female	86	2	3	6	4	7	5	1	0	1	1	ur	r	728	yes	-	2	2	20200
1	32	female	108	1	5	4	2	6	3	7	0	1	1	ur	r	1631	yes	-	1	1	20200
1	32	female	16	0	7	3	2	4	5	1	6	2	0	ur	p	1813	yes	0	7	7	19650
1	32	female	94	1	5	4	0	7	3	2	6	2	0	ur	p	1258	yes	1	5	6	19100
1	32	female	25	4	3	5	1	2	6	7	0	2	1	ur	r	966	yes	4	3	7	17450
1	32	female	85	5	3	4	7	0	6	2	1	2	1	ur	r	836	yes	5	3	8	16900
1	32	female	92	2	3	4	5	6	1	0	7	2	1	ur	r	963	yes	2	3	5	18550
1	32	female	83	5	0	7	3	1	4	2	6	2	1	ur	u	1704	yes	5	0	5	16900
1	32	female	101	2	4	0	6	3	7	5	1	3	0	ur	p	1081	yes	4	0	4	15800
1	32	female	50	0	4	1	2	7	3	5	6	3	1	ur	r	772	yes	4	1	5	16900
1	32	female	74	1	4	6	2	7	5	0	3	3	1	ur	r	1007	yes	4	6	10	16350
1	32	female	110	1	2	7	6	4	3	5	0	3	1	ur	r	975	yes	2	7	9	17450
1	32	female	112	7	5	6	0	2	1	3	4	3	1	ur	r	858	yes	5	6	11	12500
1	32	female	37	3	6	5	2	0	7	4	1	3	1	ur	u	1214	yes	6	5	11	14150
1	32	female	93	3	1	0	6	2	7	5	4	4	0	ur	p	754	yes	0	6	6	16350
1	32	female	9	7	4	0	2	1	5	3	6	4	1	ur	r	1368	yes	0	2	2	12500
1	32	female	27	0	5	6	3	7	4	2	1	4	1	ur	r	1074	yes	6	3	9	12500
1	32	female	61	5	0	7	6	4	3	2	1	4	1	ur	r	887	yes	7	6	13	11950
1	32	female	95	5	4	2	6	1	3	0	7	4	1	ur	r	721	yes	2	6	8	12500
1	32	female	6	4	7	5	6	0	1	3	2	4	1	ur	u	2071	yes	5	6	11	9750
1	32	female	42	6	1	5	2	7	0	3	4	5	0	ur	p	1385	yes	2	7	9	10300
1	32	female	68	7	4	1	3	6	0	5	2	5	1	ur	r	766	yes	3	6	9	9750
1	32	female	84	6	7	0	5	2	3	4	1	5	1	ur	r	821	yes	5	2	7	8100
1	32	female	35	5	6	3	4	1	7	2	0	5	1	ur	u	1290	yes	4	1	5	8100
1	32	female	62	6	2	3	0	5	1	7	4	5	1	ur	u	1102	yes	0	5	5	11950
1	32	female	81	5	4	6	3	7	2	1	0	5	1	ur	u	1306	yes	3	7	10	8100
1	32	female	75	6	7	3	1	0	4	5	2	6	0	ur	p	1070	yes	0	4	4	8100
1	32	female	90	4	2	1	5	0	3	6	7	6	0	ur	p	1079	yes	0	3	3	10850
1	32	female	18	1	7	2	0	3	6	5	4	6	1	ur	r	1035	yes	3	6	9	10300
1	32	female	55	0	6	5	4	3	1	2	7	6	1	ur	r	811	yes	3	1	4	7550
1	32	female	72	3	7	6	5	4	0	2	1	6	1	ur	r	897	yes	4	0	4	3700
1	32	female	88	0	2	7	4	3	6	5	1	6	1	ur	r	814	yes	3	6	9	8650
1	32	female	7	2	0	1	7	6	4	3	5	7	0	ur	p	1823	yes	4	3	7	5900
1	32	female	23	4	3	6	7	0	2	1	5	7	1	ur	r	1053	yes	2	1	3	4800
1	32	female	28	4	0	5	3	6	2	7	1	7	1	ur	r	1126	yes	2	7	9	5900
1	32	female	87	0	1	2	5	7	6	3	4	7	1	ur	r	838	yes	6	3	9	5350
1	32	female	105	2	0	3	5	4	6	7	1	7	1	ur	r	730	yes	6	7	13	5900
1	32	female	21	4	7	2	0	6	1	5	3	7	1	ur	u	1095	yes	1	5	6	5900
1	32	female	11	7	0	2	3	6	4	1	5	8	1	ur	r	1182	yes	1	5	6	3700
1	32	female	13	4	5	7	2	6	3	0	1	8	1	ur	r	1125	yes	0	1	1	1500
1	32	female	14	4	7	6	5	2	3	1	0	8	1	ur	r	1145	yes	1	0	1	950
1	32	female	107	3	5	0	1	2	4	7	6	8	1	ur	r	763	yes	7	6	13	4250
1	32	female	33	2	6	0	5	1	7	4	3	8	1	ur	u	1298	yes	4	3	7	2600
1	32	female	46	5	7	4	1	0	2	6	3	8	1	ur	u	654	yes	6	3	9	2600
1	32	female	12	0	6	3	4	7	2	1	5	9	1	ur	r	954	yes	5	-	5	400
1	32	female	22	3	1	7	6	2	4	0	5	9	1	ur	r	1048	yes	5	-	5	400
1	32	female	49	7	2	3	5	1	6	4	0	9	1	ur	r	916	yes	0	-	0	400
1	32	female	51	2	5	7	3	0	4	1	6	9	1	ur	r	635	yes	6	-	6	400
1	32	female	97	5	2	7	3	0	4	1	6	9	1	ur	r	733	yes	6	-	6	400
1	32	female	109	4	6	0	2	5	1	7	3	9	1	ur	r	613	yes	3	-	3	400
2	29	female	6	4	7	1	3	6	5	0	2	1	0	ur	p	1782	yes	-	4	4	20200
2	29	female	11	2	0	4	1	6	3	5	7	1	0	ur	p	3293	yes	-	2	2	20200
2	29	female	50	2	5	7	6	0	4	1	3	1	0	ur	p	1559	yes	-	2	2	20200
2	29	female	5	0	5	7	3	1	4	6	2	1	1	ur	u	4251	yes	-	0	0	20200
2	29	female	55	5	7	1	4	6	0	2	3	1	1	ur	u	3594	yes	-	5	5	20200
2	29	female	105	5	2	7	3	1	6	4	0	1	1	ur	u	1211	yes	-	5	5	20200
2	29	female	65	1	7	3	0	6	5	4	2	2	0	ur	p	2126	yes	1	7	8	19100
2	29	female	32	4	1	7	0	2	6	5	3	2	1	ur	r	1297	yes	4	1	5	17450
2	29	female	13	7	4	6	0	1	5	2	3	2	1	ur	u	2848	yes	7	4	11	15800
2	29	female	21	6	2	0	4	3	7	1	5	2	1	ur	u	2431	yes	6	2	8	16350
2	29	female	45	1	6	2	4	3	5	0	7	2	1	ur	u	1812	yes	1	6	7	19100
2	29	female	104	1	0	2	5	6	3	4	7	2	1	ur	u	1871	yes	1	0	1	19100
2	29	female	49	7	4	3	5	2	1	6	0	3	0	ur	p	3261	yes	4	3	7	13050
2	29	female	9	0	1	2	5	7	3	4	6	3	1	ur	u	4124	yes	1	2	3	18550
2	29	female	40	6	1	2	3	7	4	0	5	3	1	ur	u	1934	yes	1	2	3	15250
2	29	female	47	3	2	0	6	4	1	5	7	3	1	ur	u	4181	yes	2	0	2	16350
2	29	female	63	5	3	0	4	6	1	7	2	3	1	ur	u	1858	yes	3	0	3	14700
2	29	female	110	5	2	7	3	6	0	4	1	3	1	ur	u	3098	yes	2	7	9	15250
2	29	female	16	7	2	6	4	3	1	0	5	4	0	ur	p	1819	yes	6	4	10	10300
2	29	female	41	5	1	0	3	6	4	2	7	4	0	ur	p	3356	yes	0	3	3	15250
2	29	female	10	7	6	4	3	1	0	5	2	4	1	ur	r	1458	yes	4	3	7	9200
2	29	female	20	6	3	0	7	5	2	1	4	4	1	ur	r	1547	yes	0	7	7	13600
2	29	female	48	4	6	7	2	5	0	1	3	4	1	ur	r	1536	yes	7	2	9	9200
2	29	female	111	1	2	7	6	0	4	3	5	4	1	ur	r	2597	yes	7	6	13	13050
2	29	female	108	4	2	0	3	5	6	7	1	5	0	ur	p	1555	yes	3	5	8	13050
2	29	female	54	0	5	2	4	6	7	1	3	5	1	ur	u	2923	yes	4	6	10	11950
2	29	female	61	1	5	4	0	2	7	6	3	5	1	ur	u	3329	yes	0	2	2	12500
2	29	female	74	6	2	0	4	5	7	3	1	5	1	ur	u	4176	yes	4	5	9	11400
2	29	female	83	1	4	2	5	0	6	3	7	5	1	ur	u	1820	yes	5	0	5	11400
2	29	female	95	1	4	7	0	5	2	6	3	5	1	ur	u	5585	yes	0	5	5	11400
2	29	female	26	0	6	2	4	5	3	1	7	6	0	ur	p	3030	yes	5	3	8	8100
2	29	female	81	4	7	0	2	1	3	5	6	6	0	ur	p	3581	yes	1	3	4	9750
2	29	female	31	7	4	6	5	0	3	1	2	6	1	ur	r	2022	yes	0	3	3	5350
2	29	female	33	0	4	5	2	7	1	3	6	6	1	ur	r	1344	yes	7	1	8	7550
2	29	female	36	0	5	4	1	2	7	6	3	6	1	ur	r	2746	yes	2	7	9	10850
2	29	female	64	6	2	0	1	3	5	4	7	6	1	ur	u	2335	yes	3	5	8	10850
2	29	female	17	2	5	3	7	6	1	4	0	7	1	ur	r	1558	yes	1	4	5	3700
2	29	female	59	1	5	6	4	7	3	2	0	7	1	ur	r	1062	yes	3	2	5	2600
2	29	female	82	3	6	7	2	1	4	5	0	7	1	ur	r	2366	yes	4	5	9	4250
2	29	female	93	0	4	3	7	6	2	1	5	7	1	ur	r	2059	yes	2	1	3	4800
2	29	female	89	7	6	0	4	2	5	3	1	7	1	ur	u	2588	yes	5	3	8	3700
2	29	female	102	2	0	7	1	5	3	6	4	7	1	ur	u	1851	yes	3	6	9	7000
2	29	female	29	1	3	6	2	0	7	5	4	8	1	ur	r	1362	yes	5	4	9	3150
2	29	female	37	5	1	4	6	3	7	2	0	8	1	ur	r	1170	yes	2	0	2	950
2	29	female	44	4	0	7	6	2	5	3	1	8	1	ur	r	1466	yes	3	1	4	1500
2	29	female	51	4	1	2	6	3	7	5	0	8	1	ur	r	1366	yes	5	0	5	950
2	29	female	85	3	7	0	5	1	6	2	4	8	1	ur	r	1547	yes	2	4	6	3150
2	29	female	34	5	0	3	4	1	6	2	7	8	1	ur	u	2291	yes	2	7	9	4800
2	29	female	14	1	2	7	0	4	3	6	5	9	1	ur	r	1849	yes	5	-	5	400
2	29	female	38	0	3	1	7	6	2	5	4	9	1	ur	r	1719	yes	4	-	4	400
2	29	female	76	4	5	0	3	7	1	2	6	9	1	ur	r	1521	yes	6	-	6	400
2	29	female	98	6	1	4	3	0	7	5	2	9	1	ur	r	1667	yes	2	-	2	400
2	29	female	106	2	6	7	3	1	5	4	0	9	1	ur	r	2045	yes	0	-	0	400
2	29	female	112	3	2	0	4	7	5	1	6	9	1	ur	r	3694	yes	6	-	6	400
3	28	female	54	5	7	6	3	4	2	1	0	1	0	ur	p	2421	yes	-	5	5	20200
3	28	female	64	4	5	0	7	2	1	6	3	1	1	ur	r	1357	yes	-	4	4	20200
3	28	female	71	1	2	6	7	4	0	5	3	1	1	ur	r	1520	yes	-	1	1	20200
3	28	female	5	0	6	7	5	1	3	4	2	1	1	ur	u	3749	yes	-	0	0	20200
3	28	female	21	1	6	4	2	7	5	0	3	1	1	ur	u	2467	yes	-	1	1	20200
3	28	female	96	7	6	4	1	0	2	3	5	1	1	ur	u	2833	yes	-	7	7	20200
3	28	female	20	7	2	0	3	4	6	1	5	2	1	ur	r	4058	yes	7	2	9	15800
3	28	female	56	7	6	1	3	5	0	2	4	2	1	ur	r	1795	yes	7	6	13	15800
3	28	female	93	4	1	0	7	2	5	6	3	2	1	ur	r	1409	yes	4	1	5	17450
3	28	female	97	1	2	3	5	4	6	7	0	2	1	ur	r	1613	yes	1	2	3	19100
3	28	female	100	1	0	4	5	7	6	2	3	2	1	ur	r	1874	yes	1	0	1	19100
3	28	female	85	3	6	4	1	2	5	0	7	2	1	ur	u	1948	yes	3	6	9	18000
3	28	female	40	7	2	1	6	0	5	3	4	3	1	ur	r	1618	yes	2	1	3	14150
3	28	female	75	4	3	1	7	6	0	2	5	3	1	ur	r	1312	yes	3	1	4	15250
3	28	female	82	0	4	7	5	1	2	3	6	3	1	ur	r	1397	yes	4	7	11	16900
3	28	female	79	4	2	1	6	0	3	7	5	3	1	ur	u	1801	yes	2	1	3	15800
3	28	female	88	0	1	3	4	5	7	6	2	3	1	ur	u	1613	yes	1	3	4	18550
3	28	female	106	1	3	0	5	6	2	7	4	3	1	ur	u	2261	yes	3	0	3	16900
3	28	female	28	4	7	2	0	5	3	6	1	4	0	ur	p	2948	yes	2	0	2	11400
3	28	female	95	1	4	2	6	0	3	5	7	4	0	ur	p	1637	yes	2	6	8	14700
3	28	female	58	6	0	4	1	5	7	2	3	4	1	ur	r	1884	yes	4	1	5	13050
3	28	female	107	1	3	6	5	7	0	2	4	4	1	ur	r	1446	yes	6	5	11	13050
3	28	female	29	0	6	4	3	1	5	2	7	4	1	ur	u	3140	yes	4	3	7	13050
3	28	female	77	6	5	2	7	0	3	4	1	4	1	ur	u	1744	yes	2	7	9	11400
3	28	female	8	4	6	2	5	1	7	0	3	5	1	ur	r	1949	yes	5	1	6	8650
3	28	female	11	6	4	7	5	3	0	2	1	5	1	ur	r	1899	yes	5	3	8	5900
3	28	female	37	5	2	6	4	3	7	0	1	5	1	ur	r	1561	yes	4	3	7	8650
3	28	female	46	4	3	2	6	0	5	1	7	5	1	ur	r	1710	yes	6	0	6	9750
3	28	female	13	6	1	4	0	2	5	3	7	5	1	ur	u	3548	yes	0	2	2	11950
3	28	female	38	7	4	0	3	2	1	5	6	5	1	ur	u	2932	yes	3	2	5	10300
3	28	female	9	7	6	5	3	4	1	0	2	6	1	ur	r	1590	yes	4	1	5	3700
3	28	female	23	6	7	2	1	5	0	4	3	6	1	ur	r	1597	yes	5	0	5	5900
3	28	female	42	5	6	4	3	2	0	1	7	6	1	ur	r	1413	yes	2	0	2	6450
3	28	female	67	7	5	6	4	2	3	1	0	6	1	ur	r	1479	yes	2	3	5	4250
3	28	female	69	4	2	6	5	3	0	1	7	6	1	ur	r	1612	yes	3	0	3	6450
3	28	female	30	7	3	2	4	1	6	0	5	6	1	ur	u	2288	yes	1	6	7	8100
3	28	female	27	1	0	5	4	6	2	7	3	7	1	ur	r	1594	yes	2	7	9	7000
3	28	female	49	6	2	7	4	0	3	5	1	7	1	ur	r	1329	yes	3	5	8	4800
3	28	female	72	0	7	3	2	5	6	1	4	7	1	ur	r	1230	yes	6	1	7	4250
3	28	female	78	5	0	7	6	1	4	3	2	7	1	ur	r	1263	yes	4	3	7	4250
3	28	female	43	0	3	1	2	4	6	5	7	7	1	ur	u	1864	yes	6	5	11	8100
3	28	female	94	5	4	0	3	2	6	1	7	7	1	ur	u	1544	yes	6	1	7	5900
3	28	female	18	6	3	0	7	5	2	1	4	8	1	ur	r	1802	yes	1	4	5	3150
3	28	female	24	1	3	2	5	6	0	4	7	8	1	ur	r	1525	yes	4	7	11	4800
3	28	female	57	1	4	2	6	5	7	0	3	8	1	ur	r	1293	yes	0	3	3	2600
3	28	female	92	6	0	4	5	2	1	3	7	8	1	ur	r	1294	yes	3	7	10	4800
3	28	female	104	1	7	6	4	2	0	5	3	8	1	ur	r	1249	yes	5	3	8	2600
3	28	female	105	3	7	1	2	4	6	5	0	8	1	ur	r	1464	yes	5	0	5	950
3	28	female	17	5	4	2	6	3	0	7	1	9	1	ur	r	2250	yes	1	-	1	400
3	28	female	33	7	1	5	3	4	2	0	6	9	1	ur	r	2929	yes	6	-	6	400
3	28	female	45	1	5	3	4	7	2	6	0	9	1	ur	r	1406	yes	0	-	0	400
3	28	female	68	6	7	2	4	1	0	3	5	9	1	ur	r	1255	yes	5	-	5	400
3	28	female	90	6	2	3	1	0	4	5	7	9	1	ur	r	1211	yes	7	-	7	400
3	28	female	109	6	4	3	2	0	5	7	1	9	1	ur	r	1291	yes	1	-	1	400
4	21	female	28	3	2	4	1	6	5	7	0	1	0	ur	p	1746	yes	-	3	3	20200
4	21	female	71	2	4	3	6	7	0	5	1	1	0	ur	p	2663	yes	-	2	2	20200
4	21	female	25	0	3	1	7	5	6	4	2	1	1	ur	r	1382	yes	-	0	0	20200
4	21	female	74	6	2	4	5	7	0	1	3	1	1	ur	r	1658	yes	-	6	6	20200
4	21	female	41	5	0	6	3	2	1	4	7	1	1	ur	u	1607	yes	-	5	5	20200
4	21	female	90	3	4	7	2	6	1	0	5	1	1	ur	u	1553	yes	-	3	3	20200
4	21	female	67	0	1	7	4	5	2	6	3	2	0	ur	p	1471	yes	0	1	1	19650
4	21	female	78	0	5	4	6	1	2	3	7	2	0	ur	p	2106	yes	0	5	5	19650
4	21	female	45	3	4	2	1	5	6	7	0	2	1	ur	r	1421	yes	3	4	7	18000
4	21	female	79	3	2	6	0	1	4	5	7	2	1	ur	r	1385	yes	3	2	5	18000
4	21	female	23	7	3	1	5	4	6	0	2	2	1	ur	u	2327	yes	7	3	10	15800
4	21	female	62	1	7	2	4	0	5	6	3	2	1	ur	u	2429	yes	1	7	8	19100
4	21	female	103	5	2	7	1	4	6	0	3	3	0	ur	p	3030	yes	2	7	9	15250
4	21	female	107	5	1	7	2	0	6	4	3	3	0	ur	p	2747	yes	1	7	8	15800
4	21	female	33	6	2	5	4	1	7	0	3	3	1	ur	r	1520	yes	2	5	7	14700
4	21	female	42	7	3	0	2	5	6	4	1	3	1	ur	r	1372	yes	3	0	3	13600
4	21	female	59	7	5	3	0	4	1	6	2	3	1	ur	r	1377	yes	5	3	8	12500
4	21	female	63	0	1	6	2	4	7	5	3	3	1	ur	u	1413	yes	1	6	7	18550
4	21	female	56	5	0	2	6	3	1	4	7	4	0	ur	p	1454	yes	2	6	8	14700
4	21	female	9	4	7	6	1	3	2	0	5	4	1	ur	r	1368	yes	6	1	7	9200
4	21	female	40	0	6	7	4	5	1	2	3	4	1	ur	r	1346	yes	7	4	11	11400
4	21	female	81	0	4	5	3	6	2	7	1	4	1	ur	r	1685	yes	5	3	8	13600
4	21	female	99	3	4	2	5	1	7	6	0	4	1	ur	r	1374	yes	2	5	7	13600
4	21	female	104	2	4	5	0	1	3	7	6	4	1	ur	r	1813	yes	5	0	5	12500
4	21	female	106	5	4	3	1	7	6	0	2	5	0	ur	p	1426	yes	1	7	8	10850
4	21	female	111	7	1	0	4	2	6	5	3	5	0	ur	p	3003	yes	4	2	6	11400
4	21	female	12	7	5	6	1	2	0	4	3	5	1	ur	r	1401	yes	1	2	3	7550
4	21	female	52	5	2	6	7	4	1	0	3	5	1	ur	r	1304	yes	7	4	11	7000
4	21	female	72	2	7	1	5	0	4	6	3	5	1	ur	r	1730	yes	5	0	5	9750
4	21	female	101	3	6	7	4	0	1	5	2	5	1	ur	u	2083	yes	4	0	4	7000
4	21	female	48	2	0	4	1	7	5	6	3	6	0	ur	p	2183	yes	7	5	12	9750
4	21	female	54	4	7	6	1	2	3	0	5	6	1	ur	r	1320	yes	2	3	5	6450
4	21	female	76	0	3	7	1	4	2	5	6	6	1	ur	r	1673	yes	4	2	6	9200
4	21	female	100	7	1	4	5	6	2	3	0	6	1	ur	r	1143	yes	6	2	8	4800
4	21	female	36	6	4	2	0	5	3	7	1	6	1	ur	u	2151	yes	5	3	8	8100
4	21	female	43	5	3	7	6	2	0	1	4	6	1	ur	u	1603	yes	2	0	2	4800
4	21	female	38	1	2	6	3	5	0	7	4	7	0	ur	p	2037	yes	0	7	7	7550
4	21	female	44	3	6	4	0	5	2	7	1	7	0	ur	p	1787	yes	2	7	9	5900
4	21	female	91	1	0	7	3	2	4	5	6	7	0	ur	p	2883	yes	4	5	9	7550
4	21	female	46	2	1	7	5	0	6	3	4	7	1	ur	r	1364	yes	6	3	9	5350
4	21	female	11	4	0	2	3	6	7	5	1	7	1	ur	u	2015	yes	7	5	12	4800
4	21	female	35	5	2	3	0	7	1	6	4	7	1	ur	u	2226	yes	1	6	7	7000
4	21	female	8	2	3	1	4	5	0	6	7	8	1	ur	r	1632	yes	6	7	13	4800
4	21	female	14	5	6	1	2	3	7	0	4	8	1	ur	r	1212	yes	0	4	4	3150
4	21	female	15	4	0	6	7	1	3	2	5	8	1	ur	r	1298	yes	2	5	7	3700
4	21	female	68	7	2	5	0	3	4	1	6	8	1	ur	r	1258	yes	1	6	7	4250
4	21	female	86	0	4	1	7	2	6	3	5	8	1	ur	r	1209	yes	3	5	8	3700
4	21	female	92	2	5	7	1	6	0	3	4	8	1	ur	r	1256	yes	3	4	7	3150
4	21	female	13	4	3	6	2	5	7	1	0	9	1	ur	r	2743	yes	0	-	0	400
4	21	female	22	4	5	0	2	6	1	3	7	9	1	ur	r	1330	yes	7	-	7	400
4	21	female	49	1	4	7	5	2	0	3	6	9	1	ur	r	1296	yes	6	-	6	400
4	21	female	55	1	7	5	0	2	4	6	3	9	1	ur	r	1391	yes	3	-	3	400
4	21	female	80	1	7	6	0	4	2	3	5	9	1	ur	r	1162	yes	5	-	5	400
4	21	female	108	3	5	7	0	1	4	6	2	9	1	ur	r	1151	yes	2	-	2	400
5	20	female	68	6	4	2	0	5	7	3	1	1	0	ur	p	1817	yes	-	6	6	20200
5	20	female	42	3	5	4	0	7	6	2	1	1	1	ur	r	4355	yes	-	3	3	20200
5	20	female	45	1	6	3	2	0	7	4	5	1	1	ur	u	5599	yes	-	1	1	20200
5	20	female	47	6	4	5	1	7	0	2	3	1	1	ur	u	2796	yes	-	6	6	20200
5	20	female	55	5	1	0	4	6	3	2	7	1	1	ur	u	2883	yes	-	5	5	20200
5	20	female	108	5	6	0	2	7	4	3	1	1	1	ur	u	3439	yes	-	5	5	20200
5	20	female	35	3	4	5	2	0	7	6	1	2	0	ur	p	4530	yes	3	4	7	18000
5	20	female	18	2	5	7	1	6	3	0	4	2	1	ur	r	2211	yes	2	5	7	18550
5	20	female	33	4	3	0	5	1	7	6	2	2	1	ur	r	6664	yes	4	3	7	17450
5	20	female	49	2	4	6	7	0	1	3	5	2	1	ur	r	3669	yes	2	4	6	18550
5	20	female	86	4	5	6	1	3	7	0	2	2	1	ur	r	2790	yes	4	5	9	17450
5	20	female	103	7	4	1	0	5	6	3	2	2	1	ur	u	3290	yes	7	4	11	15800
5	20	female	58	7	0	6	5	1	2	3	4	3	0	ur	p	5919	yes	0	6	6	15250
5	20	female	84	6	1	0	3	2	4	7	5	3	0	ur	p	2278	yes	1	0	1	15250
5	20	female	65	3	4	2	5	1	0	7	6	3	1	ur	r	2270	yes	4	2	6	15250
5	20	female	31	6	3	4	0	7	5	2	1	3	1	ur	u	4220	yes	3	4	7	14150
5	20	female	41	2	1	6	4	5	0	7	3	3	1	ur	u	3692	yes	1	6	7	17450
5	20	female	74	5	1	0	6	2	7	4	3	3	1	ur	u	3914	yes	1	0	1	15800
5	20	female	50	0	6	5	1	4	3	7	2	4	0	ur	p	2313	yes	5	1	6	12500
5	20	female	62	4	7	1	5	6	3	0	2	4	0	ur	p	2580	yes	1	5	6	11950
5	20	female	75	3	1	2	7	4	5	6	0	4	0	ur	p	5030	yes	2	7	9	15250
5	20	female	12	3	2	7	0	5	6	4	1	4	1	ur	r	3441	yes	7	0	7	11950
5	20	female	59	3	4	6	1	2	5	0	7	4	1	ur	u	4672	yes	6	1	7	11400
5	20	female	60	2	1	5	3	7	0	4	6	4	1	ur	u	3824	yes	5	3	8	14150
5	20	female	5	6	1	5	4	3	7	0	2	5	0	ur	p	2948	yes	4	3	7	9200
5	20	female	53	7	2	4	5	3	6	0	1	5	1	ur	r	2485	yes	5	3	8	8100
5	20	female	70	7	6	2	4	3	5	0	1	5	1	ur	r	3139	yes	4	3	7	7550
5	20	female	78	0	7	1	2	3	4	5	6	5	1	ur	r	1854	yes	2	3	5	12500
5	20	female	99	6	5	2	7	1	3	4	0	5	1	ur	r	2415	yes	7	1	8	7000
5	20	female	112	3	6	2	5	0	4	1	7	5	1	ur	u	2641	yes	5	0	5	9200
5	20	female	46	5	1	7	0	3	6	2	4	6	0	ur	p	4059	yes	3	6	9	8650
5	20	female	7	5	4	7	2	3	6	1	0	6	1	ur	r	4145	yes	3	6	9	5900
5	20	female	20	2	6	3	1	4	5	0	7	6	1	ur	r	3211	yes	4	5	9	8650
5	20	female	54	7	2	3	5	6	0	1	4	6	1	ur	r	2390	yes	6	0	6	4800
5	20	female	73	5	0	1	6	4	7	2	3	6	1	ur	r	2837	yes	4	7	11	8650
5	20	female	82	0	6	7	1	4	5	2	3	6	1	ur	r	2631	yes	4	5	9	7550
5	20	female	30	4	6	1	0	5	7	3	2	7	1	ur	r	1967	yes	7	3	10	4250
5	20	female	52	6	3	1	2	5	4	7	0	7	1	ur	r	2683	yes	4	7	11	5350
5	20	female	64	0	4	3	7	6	1	2	5	7	1	ur	r	1874	yes	1	2	3	5350
5	20	female	91	1	2	3	5	0	7	4	6	7	1	ur	r	2783	yes	7	4	11	7000
5	20	female	109	7	5	1	0	6	4	3	2	7	1	ur	r	1993	yes	4	3	7	4250
5	20	female	101	2	1	4	0	7	3	5	6	7	1	ur	u	2633	yes	3	5	8	7550
5	20	female	29	6	0	5	7	3	2	4	1	8	1	ur	r	2441	yes	4	1	5	1500
5	20	female	56	6	7	5	1	0	4	3	2	8	1	ur	r	1706	yes	3	2	5	2050
5	20	female	77	5	3	1	0	2	6	7	4	8	1	ur	r	2653	yes	7	4	11	3150
5	20	female	83	6	4	7	5	0	3	2	1	8	1	ur	r	1972	yes	2	1	3	1500
5	20	female	10	4	0	6	1	3	2	7	5	8	1	ur	u	3830	yes	7	5	12	3700
5	20	female	14	2	4	6	5	0	3	1	7	8	1	ur	u	3818	yes	1	7	8	4800
5	20	female	6	1	3	2	7	4	5	6	0	9	1	ur	r	3212	yes	0	-	0	400
5	20	female	37	5	2	6	3	0	7	4	1	9	1	ur	r	2347	yes	1	-	1	400
5	20	female	79	1	3	6	0	5	2	4	7	9	1	ur	r	1789	yes	7	-	7	400
5	20	female	110	0	4	3	7	6	1	5	2	9	1	ur	r	3071	yes	2	-	2	400
5	20	female	13	4	5	6	2	7	3	0	1	9	1	ur	u	7023	yes	1	-	1	400
5	20	female	34	0	1	2	3	7	5	6	4	9	1	ur	u	2563	yes	4	-	4	400
6	49	female	28	3	0	1	2	5	7	6	4	1	0	ur	p	2809	yes	-	3	3	20200
6	49	female	26	7	1	5	0	3	6	4	2	1	1	ur	r	1696	yes	-	7	7	20200
6	49	female	95	1	0	6	5	3	2	7	4	1	1	ur	r	1478	yes	-	1	1	20200
6	49	female	109	6	5	0	4	2	1	7	3	1	1	ur	r	1528	yes	-	6	6	20200
6	49	female	35	2	1	0	6	7	5	3	4	1	1	ur	u	2162	yes	-	2	2	20200
6	49	female	37	0	4	6	3	5	7	2	1	1	1	ur	u	2574	yes	-	0	0	20200
6	49	female	69	2	5	3	7	1	4	6	0	2	0	ur	p	7685	yes	2	5	7	18550
6	49	female	12	7	6	5	3	0	1	4	2	2	1	ur	r	1974	yes	7	6	13	15800
6	49	female	41	4	7	1	0	2	5	6	3	2	1	ur	r	2276	yes	4	7	11	17450
6	49	female	87	5	1	7	6	2	4	3	0	2	1	ur	r	1702	yes	5	1	6	16900
6	49	female	24	6	7	5	2	1	3	0	4	2	1	ur	u	2293	yes	6	7	13	16350
6	49	female	77	2	7	6	4	0	3	1	5	2	1	ur	u	1953	yes	2	7	9	18550
6	49	female	6	2	1	0	4	3	6	7	5	3	1	ur	r	2063	yes	1	0	1	17450
6	49	female	54	7	1	4	0	5	3	6	2	3	1	ur	r	1749	yes	1	4	5	14700
6	49	female	61	1	5	0	6	2	7	3	4	3	1	ur	r	1482	yes	5	0	5	15800
6	49	female	68	1	3	2	6	4	0	7	5	3	1	ur	r	1582	yes	3	2	5	16900
6	49	female	79	3	4	0	7	1	2	6	5	3	1	ur	r	1510	yes	4	0	4	15250
6	49	female	73	4	5	0	1	2	6	7	3	3	1	ur	u	2149	yes	5	0	5	14150
6	49	female	29	1	0	5	3	6	7	4	2	4	1	ur	r	1690	yes	5	3	8	15250
6	49	female	74	3	0	7	6	4	1	5	2	4	1	ur	r	2789	yes	7	6	13	13050
6	49	female	76	1	4	6	3	7	0	5	2	4	1	ur	r	1611	yes	6	3	9	12500
6	49	female	101	1	7	5	2	3	6	0	4	4	1	ur	r	1579	yes	5	2	7	11400
6	49	female	102	6	2	7	4	0	3	5	1	4	1	ur	r	1532	yes	7	4	11	10300
6	49	female	44	6	0	3	4	1	5	2	7	4	1	ur	u	2266	yes	3	4	7	13600
6	49	female	19	7	4	1	3	6	5	2	0	5	1	ur	r	1940	yes	3	6	9	9750
6	49	female	67	5	1	0	7	6	4	2	3	5	1	ur	r	1437	yes	7	6	13	10850
6	49	female	88	3	7	6	2	5	0	4	1	5	1	ur	r	1700	yes	2	5	7	8100
6	49	female	100	3	0	4	2	6	1	7	5	5	1	ur	r	1750	yes	2	6	8	13050
6	49	female	105	2	3	6	4	0	7	1	5	5	1	ur	r	1680	yes	4	0	4	9750
6	49	female	84	5	2	6	1	3	7	4	0	5	1	ur	u	4621	yes	1	3	4	10300
6	49	female	21	3	7	0	6	1	4	5	2	6	1	ur	r	1686	yes	1	4	5	8100
6	49	female	51	7	5	0	3	1	6	2	4	6	1	ur	r	1548	yes	1	6	7	8650
6	49	female	58	2	6	4	7	5	3	0	1	6	1	ur	r	1525	yes	5	3	8	4250
6	49	female	81	6	0	1	3	4	5	2	7	6	1	ur	r	1470	yes	4	5	9	9750
6	49	female	82	2	1	7	0	5	3	6	4	6	1	ur	r	1466	yes	5	3	8	9200
6	49	female	96	2	1	4	0	3	5	6	7	6	1	ur	r	1326	yes	3	5	8	11950
6	49	female	7	0	1	7	6	2	5	3	4	7	0	ur	p	1606	yes	5	3	8	5350
6	49	female	18	5	4	2	3	7	6	0	1	7	1	ur	r	1980	yes	6	0	6	2050
6	49	female	31	4	1	6	5	3	2	7	0	7	1	ur	r	1912	yes	2	7	9	5350
6	49	female	94	7	2	0	3	4	5	6	1	7	1	ur	r	1395	yes	5	6	11	5350
6	49	female	110	5	4	3	6	0	2	7	1	7	1	ur	r	1616	yes	2	7	9	5900
6	49	female	20	6	3	1	5	0	4	2	7	7	1	ur	u	2100	yes	4	2	6	6450
6	49	female	50	4	0	1	6	7	2	5	3	8	1	ur	r	1838	yes	5	3	8	2600
6	49	female	78	5	3	0	7	4	2	1	6	8	1	ur	r	1482	yes	1	6	7	4250
6	49	female	83	0	4	5	1	3	6	2	7	8	1	ur	r	1467	yes	2	7	9	4800
6	49	female	86	3	6	4	5	2	0	7	1	8	1	ur	r	1553	yes	7	1	8	1500
6	49	female	92	4	1	6	5	3	7	0	2	8	1	ur	r	1434	yes	0	2	2	2050
6	49	female	62	6	2	1	7	3	5	0	4	8	1	ur	u	2399	yes	0	4	4	3150
6	49	female	11	4	2	0	5	1	3	6	7	9	1	ur	r	1715	yes	7	-	7	400
6	49	female	34	5	3	1	4	7	6	2	0	9	1	ur	r	1719	yes	0	-	0	400
6	49	female	71	6	1	7	5	2	4	3	0	9	1	ur	r	1743	yes	0	-	0	400
6	49	female	85	5	2	1	3	7	6	4	0	9	1	ur	r	1280	yes	0	-	0	400
6	49	female	103	4	1	6	5	2	7	0	3	9	1	ur	r	1451	yes	3	-	3	400
6	49	female	104	1	5	6	2	3	4	7	0	9	1	ur	r	1344	yes	0	-	0	400
7	21	female	7	5	6	1	0	3	7	4	2	1	1	ur	r	2576	yes	-	5	5	20200
7	21	female	18	5	7	4	3	6	0	1	2	1	1	ur	r	1700	yes	-	5	5	20200
7	21	female	34	3	7	0	2	1	4	5	6	1	1	ur	r	1440	yes	-	3	3	20200
7	21	female	95	6	3	4	0	1	5	2	7	1	1	ur	r	1244	yes	-	6	6	20200
7	21	female	39	1	4	3	2	7	0	6	5	1	1	ur	u	3083	yes	-	1	1	20200
7	21	female	60	0	6	3	4	2	1	5	7	1	1	ur	u	2091	yes	-	0	0	20200
7	21	female	41	1	2	4	5	6	7	3	0	2	0	ur	p	1419	yes	1	2	3	19100
7	21	female	48	3	4	6	1	0	2	7	5	2	1	ur	r	2756	yes	3	4	7	18000
7	21	female	73	2	4	1	6	5	3	7	0	2	1	ur	r	1321	yes	2	4	6	18550
7	21	female	77	3	7	2	4	5	0	1	6	2	1	ur	r	1325	yes	3	7	10	18000
7	21	female	46	2	4	5	6	1	7	3	0	2	1	ur	u	3771	yes	2	4	6	18550
7	21	female	49	5	4	2	0	1	6	3	7	2	1	ur	u	3143	yes	5	4	9	16900
7	21	female	55	0	4	7	3	6	1	2	5	3	1	ur	r	2894	yes	4	7	11	16900
7	21	female	58	7	4	0	3	2	1	5	6	3	1	ur	r	1262	yes	4	0	4	13050
7	21	female	90	7	6	3	4	5	0	2	1	3	1	ur	r	1520	yes	6	3	9	11950
7	21	female	103	3	4	6	5	2	1	0	7	3	1	ur	r	1787	yes	4	6	10	15250
7	21	female	110	7	4	0	3	6	5	1	2	3	1	ur	r	1192	yes	4	0	4	13050
7	21	female	16	3	2	6	5	4	7	0	1	3	1	ur	u	3161	yes	2	6	8	16350
7	21	female	61	3	0	6	2	7	4	1	5	4	0	ur	p	2195	yes	6	2	8	13600
7	21	female	13	5	4	1	6	0	7	2	3	4	1	ur	r	2760	yes	1	6	7	13050
7	21	female	92	3	4	6	5	2	0	1	7	4	1	ur	r	1540	yes	6	5	11	11400
7	21	female	106	4	6	7	3	5	1	0	2	4	1	ur	r	1228	yes	7	3	10	9200
7	21	female	107	6	5	2	0	7	1	4	3	4	1	ur	r	1229	yes	2	0	2	11400
7	21	female	32	3	6	2	4	5	1	7	0	4	1	ur	u	4063	yes	2	4	6	12500
7	21	female	17	3	5	0	1	4	7	2	6	5	1	ur	r	1556	yes	1	4	5	13050
7	21	female	26	6	5	0	7	4	1	2	3	5	1	ur	r	1437	yes	7	4	11	8100
7	21	female	36	3	6	7	1	0	5	2	4	5	1	ur	r	1313	yes	1	0	1	8650
7	21	female	68	7	2	1	6	0	5	4	3	5	1	ur	r	1811	yes	6	0	6	9200
7	21	female	69	3	0	5	2	7	4	6	1	5	1	ur	r	1311	yes	2	7	9	12500
7	21	female	82	3	4	2	1	6	0	7	5	5	1	ur	u	2177	yes	1	6	7	12500
7	21	female	6	4	3	0	2	7	1	5	6	6	1	ur	r	2309	yes	7	1	8	8650
7	21	female	21	1	7	4	6	0	2	3	5	6	1	ur	r	1463	yes	0	2	2	7550
7	21	female	52	4	6	5	7	3	2	1	0	6	1	ur	r	1221	yes	3	2	5	3700
7	21	female	71	1	4	7	6	0	3	5	2	6	1	ur	r	1342	yes	0	3	3	7550
7	21	female	86	0	7	5	3	6	4	2	1	6	1	ur	r	1364	yes	6	4	10	5900
7	21	female	89	4	5	7	3	0	6	1	2	6	1	ur	r	1220	yes	0	6	6	7000
7	21	female	38	5	7	4	3	2	0	6	1	7	1	ur	r	1333	yes	0	6	6	5350
7	21	female	45	7	5	0	1	2	3	4	6	7	1	ur	r	1433	yes	3	4	7	7000
7	21	female	51	4	6	0	2	7	5	1	3	7	1	ur	r	1312	yes	5	1	6	3700
7	21	female	74	4	7	3	6	1	2	5	0	7	1	ur	r	1423	yes	2	5	7	4250
7	21	female	76	6	1	5	4	2	0	7	3	7	1	ur	r	1394	yes	0	7	7	7000
7	21	female	102	4	0	1	2	7	3	5	6	7	1	ur	r	1142	yes	3	5	8	7550
7	21	female	14	2	5	7	0	4	6	3	1	8	1	ur	r	1951	yes	3	1	4	1500
7	21	female	23	1	6	5	0	3	7	2	4	8	1	ur	r	1811	yes	2	4	6	3150
7	21	female	57	5	4	7	1	2	3	0	6	8	1	ur	r	1272	yes	0	6	6	4250
7	21	female	59	6	4	1	7	0	3	5	2	8	1	ur	r	1241	yes	5	2	7	2050
7	21	female	72	2	0	1	5	4	6	7	3	8	1	ur	r	1255	yes	7	3	10	2600
7	21	female	108	0	2	6	5	4	1	7	3	8	1	ur	r	1310	yes	7	3	10	2600
7	21	female	22	2	0	7	5	1	4	3	6	9	1	ur	r	1987	yes	6	-	6	400
7	21	female	47	2	0	3	1	6	5	4	7	9	1	ur	r	1303	yes	7	-	7	400
7	21	female	63	2	7	6	1	0	4	5	3	9	1	ur	r	1317	yes	3	-	3	400
7	21	female	85	1	7	4	5	3	0	6	2	9	1	ur	r	1335	yes	2	-	2	400
7	21	female	88	1	4	5	7	2	0	6	3	9	1	ur	r	1302	yes	3	-	3	400
7	21	female	112	7	1	4	6	3	5	0	2	9	1	ur	r	1132	yes	2	-	2	400
8	20	female	44	0	7	3	6	2	1	5	4	1	0	ur	p	1726	yes	-	0	0	20200
8	20	female	7	7	0	4	2	3	1	5	6	1	1	ur	r	1959	yes	-	7	7	20200
8	20	female	18	7	0	4	6	1	5	2	3	1	1	ur	r	1872	yes	-	7	7	20200
8	20	female	63	5	2	4	3	6	0	7	1	1	1	ur	r	1535	yes	-	5	5	20200
8	20	female	71	6	4	1	5	3	0	2	7	1	1	ur	r	1674	yes	-	6	6	20200
8	20	female	73	3	6	2	7	1	5	0	4	1	1	ur	r	1439	yes	-	3	3	20200
8	20	female	31	1	7	4	2	5	3	6	0	2	1	ur	r	2039	yes	1	7	8	19100
8	20	female	41	1	7	6	0	3	4	5	2	2	1	ur	r	1549	yes	1	7	8	19100
8	20	female	56	3	5	1	2	6	7	4	0	2	1	ur	r	2269	yes	3	5	8	18000
8	20	female	60	6	7	5	3	0	2	1	4	2	1	ur	r	1550	yes	6	7	13	16350
8	20	female	62	1	5	4	3	0	2	7	6	2	1	ur	r	1534	yes	1	5	6	19100
8	20	female	11	4	1	6	5	7	3	0	2	2	1	ur	u	4879	yes	4	1	5	17450
8	20	female	47	7	5	6	3	2	4	0	1	3	1	ur	r	1593	yes	5	6	11	12500
8	20	female	52	5	2	3	7	0	4	1	6	3	1	ur	r	1641	yes	2	3	5	15250
8	20	female	86	5	7	3	4	1	2	0	6	3	1	ur	r	1488	yes	7	3	10	12500
8	20	female	107	1	3	7	0	6	2	4	5	3	1	ur	r	1619	yes	3	7	10	16900
8	20	female	33	3	1	5	7	2	0	6	4	3	1	ur	u	3918	yes	1	5	6	16900
8	20	female	90	0	1	5	2	4	3	7	6	3	1	ur	u	3178	yes	1	5	6	18550
8	20	female	19	4	6	0	2	7	5	1	3	4	1	ur	r	2697	yes	0	2	2	13050
8	20	female	82	1	5	0	3	2	7	4	6	4	1	ur	r	1594	yes	0	3	3	15250
8	20	female	85	2	1	6	7	0	4	5	3	4	1	ur	r	1907	yes	6	7	13	13600
8	20	female	95	6	3	1	5	7	4	0	2	4	1	ur	r	1899	yes	1	5	6	13050
8	20	female	102	2	5	1	6	0	4	3	7	4	1	ur	r	1507	yes	1	6	7	14150
8	20	female	42	2	5	6	7	0	3	4	1	4	1	ur	u	3423	yes	6	7	13	11400
8	20	female	6	0	5	1	4	6	7	3	2	5	0	ur	p	8514	yes	4	6	10	12500
8	20	female	70	6	1	3	7	2	0	5	4	5	1	ur	r	1534	yes	7	2	9	8650
8	20	female	78	5	1	4	3	0	6	2	7	5	1	ur	r	1392	yes	3	0	3	10850
8	20	female	106	4	1	7	3	0	5	2	6	5	1	ur	r	1615	yes	3	0	3	9750
8	20	female	108	3	4	6	1	0	7	5	2	5	1	ur	r	1826	yes	1	0	1	10300
8	20	female	109	1	5	6	7	3	0	2	4	5	1	ur	r	1530	yes	7	3	10	7550
8	20	female	17	7	0	3	6	5	4	1	2	6	1	ur	r	1676	yes	5	4	9	5900
8	20	female	37	3	1	6	5	0	2	4	7	6	1	ur	r	1764	yes	0	2	2	9200
8	20	female	38	1	6	3	4	7	2	5	0	6	1	ur	r	1447	yes	7	2	9	5900
8	20	female	46	6	3	0	5	4	7	2	1	6	1	ur	r	1748	yes	4	7	11	7550
8	20	female	74	0	2	4	5	1	6	7	3	6	1	ur	r	1709	yes	1	6	7	10850
8	20	female	89	1	3	5	4	6	0	7	2	6	1	ur	r	1420	yes	6	0	6	7000
8	20	female	27	1	0	3	7	2	4	5	6	7	1	ur	r	1814	yes	4	5	9	7550
8	20	female	72	1	5	7	0	4	6	3	2	7	1	ur	r	1410	yes	6	3	9	4250
8	20	female	77	2	5	4	0	7	6	3	1	7	1	ur	r	1341	yes	6	3	9	3700
8	20	female	80	2	3	1	5	7	6	4	0	7	1	ur	r	1393	yes	6	4	10	3700
8	20	female	98	6	1	2	7	3	0	4	5	7	1	ur	u	2150	yes	0	4	4	6450
8	20	female	100	1	6	4	0	7	2	5	3	7	1	ur	u	4180	yes	2	5	7	5900
8	20	female	20	5	1	0	3	6	7	2	4	8	1	ur	r	1360	yes	2	4	6	3150
8	20	female	22	4	5	2	1	3	6	0	7	8	1	ur	r	1574	yes	0	7	7	4800
8	20	female	28	4	6	7	1	5	3	2	0	8	1	ur	r	1332	yes	2	0	2	950
8	20	female	40	5	4	6	2	3	1	0	7	8	1	ur	r	1504	yes	0	7	7	4800
8	20	female	67	2	6	5	3	7	1	4	0	8	1	ur	r	1223	yes	4	0	4	950
8	20	female	97	6	4	7	5	1	3	2	0	8	1	ur	r	1340	yes	2	0	2	950
8	20	female	29	6	0	3	5	2	4	7	1	9	1	ur	r	1522	yes	1	-	1	400
8	20	female	36	6	2	7	3	4	0	5	1	9	1	ur	r	1237	yes	1	-	1	400
8	20	female	57	6	3	2	0	1	7	4	5	9	1	ur	r	1226	yes	5	-	5	400
8	20	female	76	5	1	3	0	2	6	7	4	9	1	ur	r	1240	yes	4	-	4	400
8	20	female	84	5	7	2	1	3	4	6	0	9	1	ur	r	1297	yes	0	-	0	400
8	20	female	112	7	2	4	1	6	5	3	0	9	1	ur	r	1234	yes	0	-	0	400
9	19	male	31	3	4	2	7	0	5	6	1	1	0	ur	p	2855	yes	-	3	3	20200
9	19	male	56	4	3	7	0	2	6	5	1	1	0	ur	p	2723	yes	-	4	4	20200
9	19	male	7	6	0	7	1	4	3	2	5	1	1	ur	r	2052	yes	-	6	6	20200
9	19	male	55	6	7	1	4	3	0	2	5	1	1	ur	r	3222	yes	-	6	6	20200
9	19	male	45	6	3	0	1	2	4	5	7	1	1	ur	u	2201	yes	-	6	6	20200
9	19	male	78	3	7	5	4	0	6	2	1	1	1	ur	u	2233	yes	-	3	3	20200
9	19	male	35	6	2	1	0	4	7	5	3	2	0	ur	p	6595	yes	6	2	8	16350
9	19	male	36	7	5	6	2	3	4	1	0	2	0	ur	p	5938	yes	7	5	12	15800
9	19	male	63	6	7	3	2	1	0	4	5	2	0	ur	p	2167	yes	6	7	13	16350
9	19	male	32	6	7	2	0	3	5	1	4	2	1	ur	u	5140	yes	6	7	13	16350
9	19	male	65	5	2	3	0	6	4	7	1	2	1	ur	u	1698	yes	5	2	7	16900
9	19	male	94	2	1	5	3	4	6	7	0	2	1	ur	u	2335	yes	2	1	3	18550
9	19	male	109	6	4	1	7	5	0	2	3	3	0	ur	p	1562	yes	4	1	5	13600
9	19	male	29	6	7	4	1	5	3	2	0	3	1	ur	r	3033	yes	7	4	11	11950
9	19	male	69	6	0	1	4	2	5	3	7	3	1	ur	r	1538	yes	0	1	1	15800
9	19	male	62	1	6	2	4	0	5	3	7	3	1	ur	u	4292	yes	6	2	8	15250
9	19	male	77	6	5	4	3	0	7	1	2	3	1	ur	u	2392	yes	5	4	9	13050
9	19	male	81	3	0	5	4	7	2	6	1	3	1	ur	u	1811	yes	0	5	5	17450
9	19	male	68	2	7	4	3	0	6	1	5	4	1	ur	r	1634	yes	4	3	7	11400
9	19	male	95	7	3	1	2	4	0	6	5	4	1	ur	r	3083	yes	1	2	3	12500
9	19	male	8	2	4	6	5	1	3	7	0	4	1	ur	u	3243	yes	6	5	11	11950
9	19	male	19	3	5	2	0	1	6	4	7	4	1	ur	u	3015	yes	2	0	2	13050
9	19	male	30	5	0	4	3	1	7	2	6	4	1	ur	u	3701	yes	4	3	7	13600
9	19	male	103	7	0	2	5	4	6	3	1	4	1	ur	u	1806	yes	2	5	7	13600
9	19	male	64	2	5	1	0	7	6	4	3	5	0	ur	p	7838	yes	0	7	7	13600
9	19	male	9	0	7	4	2	1	5	6	3	5	1	ur	r	2528	yes	2	1	3	10850
9	19	male	97	3	4	6	7	0	5	1	2	5	1	ur	r	1455	yes	7	0	7	7000
9	19	male	105	4	0	1	6	2	7	5	3	5	1	ur	r	1624	yes	6	2	8	11950
9	19	male	53	6	7	4	5	3	0	1	2	5	1	ur	u	2335	yes	5	3	8	5900
9	19	male	71	7	6	3	0	4	1	2	5	5	1	ur	u	1926	yes	0	4	4	9200
9	19	male	6	1	5	4	3	0	7	6	2	6	0	ur	p	2196	yes	0	7	7	10300
9	19	male	57	6	7	3	5	2	1	0	4	6	1	ur	r	2093	yes	2	1	3	4800
9	19	male	67	3	2	7	4	5	1	0	6	6	1	ur	r	3063	yes	5	1	6	5900
9	19	male	79	1	0	5	3	7	6	4	2	6	1	ur	r	1787	yes	7	6	13	8650
9	19	male	93	1	7	2	6	0	5	4	3	6	1	ur	u	4057	yes	0	5	5	8650
9	19	male	110	7	4	2	0	5	1	3	6	6	1	ur	u	1631	yes	5	1	6	7550
9	19	male	50	4	0	2	1	5	6	3	7	7	0	ur	p	2980	yes	6	3	9	7000
9	19	male	10	1	2	5	7	0	3	6	4	7	1	ur	r	4334	yes	3	6	9	7000
9	19	male	20	2	3	5	6	4	7	1	0	7	1	ur	r	2724	yes	7	1	8	2050
9	19	male	38	0	4	6	7	1	3	2	5	7	1	ur	r	2464	yes	3	2	5	5350
9	19	male	91	0	3	7	1	2	5	4	6	7	1	ur	r	1545	yes	5	4	9	7000
9	19	male	111	7	1	2	0	6	5	3	4	7	1	ur	r	2368	yes	5	3	8	5350
9	19	male	22	1	4	3	5	0	6	2	7	8	1	ur	r	2787	yes	2	7	9	4800
9	19	male	28	1	5	3	0	4	7	6	2	8	1	ur	r	2323	yes	6	2	8	2050
9	19	male	41	0	4	3	5	2	1	6	7	8	1	ur	r	2130	yes	6	7	13	4800
9	19	male	89	6	7	2	1	5	4	0	3	8	1	ur	r	2032	yes	0	3	3	2600
9	19	male	100	1	3	5	7	6	4	2	0	8	1	ur	r	1821	yes	2	0	2	950
9	19	male	18	5	0	2	7	6	3	1	4	8	1	ur	u	2227	yes	1	4	5	3150
9	19	male	42	2	1	7	5	4	0	6	3	9	1	ur	r	1621	yes	3	-	3	400
9	19	male	87	2	3	0	7	4	5	6	1	9	1	ur	r	1410	yes	1	-	1	400
9	19	male	99	5	1	0	4	6	2	3	7	9	1	ur	r	1475	yes	7	-	7	400
9	19	male	104	1	0	3	6	7	2	5	4	9	1	ur	r	1289	yes	4	-	4	400
9	19	male	107	3	2	6	5	7	1	0	4	9	1	ur	r	1464	yes	4	-	4	400
9	19	male	16	7	3	2	5	6	1	0	4	9	1	ur	u	2149	yes	4	-	4	400
10	20	female	11	5	4	2	7	1	0	3	6	1	0	ur	p	2276	yes	-	5	5	20200
10	20	female	93	0	3	2	6	5	1	4	7	1	1	ur	r	1642	yes	-	0	0	20200
10	20	female	105	2	6	3	7	1	5	4	0	1	1	ur	r	1990	yes	-	2	2	20200
10	20	female	106	5	0	1	4	6	7	3	2	1	1	ur	r	1891	yes	-	5	5	20200
10	20	female	109	7	0	3	4	2	1	5	6	1	1	ur	r	1943	yes	-	7	7	20200
10	20	female	16	0	7	4	1	5	6	2	3	1	1	ur	u	2968	yes	-	0	0	20200
10	20	female	63	2	5	4	3	6	0	7	1	2	0	ur	p	2678	yes	2	5	7	18550
10	20	female	20	7	0	4	5	6	2	3	1	2	1	ur	r	2205	yes	7	0	7	15800
10	20	female	24	1	3	2	5	7	4	6	0	2	1	ur	r	2948	yes	1	3	4	19100
10	20	female	32	1	4	2	7	5	6	0	3	2	1	ur	r	3019	yes	1	4	5	19100
10	20	female	68	1	3	2	0	6	4	7	5	2	1	ur	r	1743	yes	1	3	4	19100
10	20	female	84	2	6	4	7	5	0	3	1	2	1	ur	u	3418	yes	2	6	8	18550
10	20	female	96	2	4	7	6	1	3	0	5	3	0	ur	p	2978	yes	4	7	11	15800
10	20	female	65	5	6	7	2	3	4	0	1	3	1	ur	r	2870	yes	6	7	13	13050
10	20	female	82	2	3	1	4	6	7	5	0	3	1	ur	r	1973	yes	3	1	4	16350
10	20	female	98	6	7	4	5	2	1	0	3	3	1	ur	r	1944	yes	7	4	11	11950
10	20	female	112	3	0	5	4	1	7	6	2	3	1	ur	r	1752	yes	0	5	5	17450
10	20	female	76	3	2	0	6	4	7	5	1	3	1	ur	u	3784	yes	2	0	2	16350
10	20	female	14	6	1	5	4	3	2	0	7	4	1	ur	r	2019	yes	5	4	9	11950
10	20	female	29	5	3	1	0	7	4	2	6	4	1	ur	r	2539	yes	1	0	1	13600
10	20	female	81	1	0	3	2	4	5	6	7	4	1	ur	r	1606	yes	3	2	5	16350
10	20	female	39	1	3	6	4	5	2	7	0	4	1	ur	u	4200	yes	6	4	10	13050
10	20	female	79	5	6	0	1	4	7	2	3	4	1	ur	u	3690	yes	0	1	1	12500
10	20	female	97	7	4	6	1	5	3	0	2	4	1	ur	u	3454	yes	6	1	7	9200
10	20	female	53	4	2	0	1	3	5	6	7	5	0	ur	p	2374	yes	1	3	4	14150
10	20	female	5	5	3	4	1	6	0	2	7	5	1	ur	r	3498	yes	1	6	7	10850
10	20	female	19	1	2	5	4	3	7	0	6	5	1	ur	r	4177	yes	4	3	7	11400
10	20	female	52	5	7	4	0	6	3	2	1	5	1	ur	r	2053	yes	0	6	6	9200
10	20	female	99	7	0	2	5	1	6	3	4	5	1	ur	r	1833	yes	5	1	6	10300
10	20	female	101	1	3	7	0	2	6	4	5	5	1	ur	r	1577	yes	0	2	2	11950
10	20	female	23	4	2	6	5	0	1	7	3	6	0	ur	p	2815	yes	0	1	1	8100
10	20	female	60	1	3	2	4	7	6	5	0	6	1	ur	r	2244	yes	7	6	13	8100
10	20	female	89	7	4	0	3	5	6	1	2	6	1	ur	r	1785	yes	5	6	11	7000
10	20	female	12	6	2	7	4	5	1	0	3	6	1	ur	u	2780	yes	5	1	6	4250
10	20	female	33	2	1	7	0	6	5	3	4	6	1	ur	u	3825	yes	6	5	11	8650
10	20	female	49	3	4	5	2	1	7	6	0	6	1	ur	u	4261	yes	1	7	8	9200
10	20	female	18	2	3	5	4	6	0	1	7	7	1	ur	r	2708	yes	0	1	1	5900
10	20	female	43	6	0	3	2	4	1	7	5	7	1	ur	r	2683	yes	1	7	8	8100
10	20	female	44	1	5	7	6	2	4	0	3	7	1	ur	r	2175	yes	4	0	4	3150
10	20	female	47	3	1	6	7	0	5	4	2	7	1	ur	r	1971	yes	5	4	9	4800
10	20	female	74	4	7	5	0	1	3	6	2	7	1	ur	r	1669	yes	3	6	9	5900
10	20	female	36	6	1	0	3	2	4	5	7	7	1	ur	u	4433	yes	4	5	9	8100
10	20	female	38	3	4	7	0	6	5	2	1	8	1	ur	r	2061	yes	2	1	3	1500
10	20	female	48	1	2	4	3	5	0	7	6	8	1	ur	r	3236	yes	7	6	13	4250
10	20	female	50	3	6	5	2	7	1	4	0	8	1	ur	r	2725	yes	4	0	4	950
10	20	female	88	7	5	0	3	6	4	2	1	8	1	ur	r	1441	yes	2	1	3	1500
10	20	female	91	2	5	1	0	3	7	6	4	8	1	ur	r	1733	yes	6	4	10	3150
10	20	female	8	4	1	3	0	5	2	7	6	8	1	ur	u	4270	yes	7	6	13	4250
10	20	female	6	3	7	1	5	4	0	2	6	9	1	ur	r	2529	yes	6	-	6	400
10	20	female	10	2	5	1	7	4	6	3	0	9	1	ur	r	2458	yes	0	-	0	400
10	20	female	21	5	4	0	7	3	2	1	6	9	1	ur	r	2316	yes	6	-	6	400
10	20	female	46	6	5	3	0	2	4	1	7	9	1	ur	r	2038	yes	7	-	7	400
10	20	female	100	0	5	4	1	2	7	3	6	9	1	ur	r	1886	yes	6	-	6	400
10	20	female	104	7	1	3	0	5	6	4	2	9	1	ur	r	1424	yes	2	-	2	400
11	20	female	18	2	3	6	4	7	5	1	0	1	0	ur	p	6527	yes	-	2	2	20200
11	20	female	33	1	5	4	2	6	3	7	0	1	0	ur	p	4015	yes	-	1	1	20200
11	20	female	12	7	2	0	1	5	3	6	4	1	1	ur	r	4576	yes	-	7	7	20200
11	20	female	7	5	1	2	6	0	7	3	4	1	1	ur	u	3094	yes	-	5	5	20200
11	20	female	63	7	1	3	6	2	5	4	0	1	1	ur	u	4005	yes	-	7	7	20200
11	20	female	68	3	6	5	2	7	4	1	0	1	1	ur	u	2864	yes	-	3	3	20200
11	20	female	36	2	3	4	5	6	1	0	7	2	0	ur	p	4456	yes	2	3	5	18550
11	20	female	97	1	5	4	0	7	3	2	6	2	0	ur	p	4646	yes	1	5	6	19100
11	20	female	31	5	3	4	7	0	6	2	1	2	1	ur	r	2068	yes	5	3	8	16900
11	20	female	70	4	3	5	1	2	6	7	0	2	1	ur	r	2296	yes	4	3	7	17450
11	20	female	50	5	0	7	3	1	4	2	6	2	1	ur	u	2932	yes	5	0	5	16900
11	20	female	105	0	7	3	2	4	5	1	6	2	1	ur	u	3666	yes	0	7	7	19650
11	20	female	30	0	4	1	2	7	3	5	6	3	0	ur	p	5772	yes	4	1	5	16900
11	20	female	78	3	6	5	2	0	7	4	1	3	1	ur	r	1936	yes	6	5	11	14150
11	20	female	22	7	5	6	0	2	1	3	4	3	1	ur	u	2680	yes	5	6	11	12500
11	20	female	47	1	4	6	2	7	5	0	3	3	1	ur	u	2189	yes	4	6	10	16350
11	20	female	90	2	4	0	6	3	7	5	1	3	1	ur	u	1993	yes	4	0	4	15800
11	20	female	94	1	2	7	6	4	3	5	0	3	1	ur	u	2880	yes	2	7	9	17450
11	20	female	19	3	1	0	6	2	7	5	4	4	0	ur	p	7994	yes	0	6	6	16350
11	20	female	23	5	4	2	6	1	3	0	7	4	1	ur	r	1902	yes	2	6	8	12500
11	20	female	57	4	7	5	6	0	1	3	2	4	1	ur	r	1691	yes	5	6	11	9750
11	20	female	61	5	0	7	6	4	3	2	1	4	1	ur	r	1654	yes	7	6	13	11950
11	20	female	75	7	4	0	2	1	5	3	6	4	1	ur	u	2299	yes	0	2	2	12500
11	20	female	92	0	5	6	3	7	4	2	1	4	1	ur	u	3652	yes	6	3	9	12500
11	20	female	21	6	2	3	0	5	1	7	4	5	1	ur	r	2029	yes	0	5	5	11950
11	20	female	73	5	6	3	4	1	7	2	0	5	1	ur	r	2304	yes	4	1	5	8100
11	20	female	106	7	4	1	3	6	0	5	2	5	1	ur	r	1604	yes	3	6	9	9750
11	20	female	69	6	1	5	2	7	0	3	4	5	1	ur	u	3465	yes	2	7	9	10300
11	20	female	100	6	7	0	5	2	3	4	1	5	1	ur	u	2978	yes	5	2	7	8100
11	20	female	107	5	4	6	3	7	2	1	0	5	1	ur	u	3616	yes	3	7	10	8100
11	20	female	40	3	7	6	5	4	0	2	1	6	1	ur	r	2373	yes	4	0	4	3700
11	20	female	42	0	6	5	4	3	1	2	7	6	1	ur	r	1763	yes	3	1	4	7550
11	20	female	84	1	7	2	0	3	6	5	4	6	1	ur	r	2333	yes	3	6	9	10300
11	20	female	9	6	7	3	1	0	4	5	2	6	1	ur	u	6109	yes	0	4	4	8100
11	20	female	14	4	2	1	5	0	3	6	7	6	1	ur	u	6212	yes	0	3	3	10850
11	20	female	74	0	2	7	4	3	6	5	1	6	1	ur	u	3838	yes	3	6	9	8650
11	20	female	10	0	1	2	5	7	6	3	4	7	0	ur	p	5799	yes	6	3	9	5350
11	20	female	80	2	0	3	5	4	6	7	1	7	1	ur	r	2525	yes	6	7	13	5900
11	20	female	34	4	0	5	3	6	2	7	1	7	1	ur	u	3673	yes	2	7	9	5900
11	20	female	81	4	7	2	0	6	1	5	3	7	1	ur	u	2996	yes	1	5	6	5900
11	20	female	82	4	3	6	7	0	2	1	5	7	1	ur	u	3004	yes	2	1	3	4800
11	20	female	83	2	0	1	7	6	4	3	5	7	1	ur	u	3765	yes	4	3	7	5900
11	20	female	5	5	7	4	1	0	2	6	3	8	1	ur	r	2244	yes	6	3	9	2600
11	20	female	13	2	6	0	5	1	7	4	3	8	1	ur	r	1860	yes	4	3	7	2600
11	20	female	49	4	5	7	2	6	3	0	1	8	1	ur	r	1820	yes	0	1	1	1500
11	20	female	65	4	7	6	5	2	3	1	0	8	1	ur	r	1922	yes	1	0	1	950
11	20	female	67	3	5	0	1	2	4	7	6	8	1	ur	r	2129	yes	7	6	13	4250
11	20	female	71	7	0	2	3	6	4	1	5	8	1	ur	r	3074	yes	1	5	6	3700
11	20	female	8	4	6	0	2	5	1	7	3	9	1	ur	r	2232	yes	3	-	3	400
11	20	female	29	5	2	7	3	0	4	1	6	9	1	ur	r	2024	yes	6	-	6	400
11	20	female	55	7	2	3	5	1	6	4	0	9	1	ur	r	1773	yes	0	-	0	400
11	20	female	72	3	1	7	6	2	4	0	5	9	1	ur	r	1735	yes	5	-	5	400
11	20	female	101	2	5	7	3	0	4	1	6	9	1	ur	r	1631	yes	6	-	6	400
11	20	female	112	0	6	3	4	7	2	1	5	9	1	ur	r	1494	yes	5	-	5	400
12	24	male	60	2	5	7	6	0	4	1	3	1	0	ur	p	1921	yes	-	2	2	20200
12	24	male	78	0	5	7	3	1	4	6	2	1	1	ur	r	2141	yes	-	0	0	20200
12	24	male	43	5	7	1	4	6	0	2	3	1	1	ur	u	2595	yes	-	5	5	20200
12	24	male	66	2	0	4	1	6	3	5	7	1	1	ur	u	1776	yes	-	2	2	20200
12	24	male	81	5	2	7	3	1	6	4	0	1	1	ur	u	2121	yes	-	5	5	20200
12	24	male	85	4	7	1	3	6	5	0	2	1	1	ur	u	4102	yes	-	4	4	20200
12	24	male	103	4	1	7	0	2	6	5	3	2	0	ur	p	2318	yes	4	1	5	17450
12	24	male	6	1	0	2	5	6	3	4	7	2	1	ur	r	2278	yes	1	0	1	19100
12	24	male	35	1	6	2	4	3	5	0	7	2	1	ur	r	1773	yes	1	6	7	19100
12	24	male	107	6	2	0	4	3	7	1	5	2	1	ur	r	1469	yes	6	2	8	16350
12	24	male	109	7	4	6	0	1	5	2	3	2	1	ur	r	1485	yes	7	4	11	15800
12	24	male	104	1	7	3	0	6	5	4	2	2	1	ur	u	1505	yes	1	7	8	19100
12	24	male	49	0	1	2	5	7	3	4	6	3	0	ur	p	2885	yes	1	2	3	18550
12	24	male	14	3	2	0	6	4	1	5	7	3	1	ur	r	1676	yes	2	0	2	16350
12	24	male	106	5	3	0	4	6	1	7	2	3	1	ur	r	2013	yes	3	0	3	14700
12	24	male	13	5	2	7	3	6	0	4	1	3	1	ur	u	2058	yes	2	7	9	15250
12	24	male	82	6	1	2	3	7	4	0	5	3	1	ur	u	2792	yes	1	2	3	15250
12	24	male	102	7	4	3	5	2	1	6	0	3	1	ur	u	1899	yes	4	3	7	13050
12	24	male	17	1	2	7	6	0	4	3	5	4	0	ur	p	1873	yes	7	6	13	13050
12	24	male	79	7	6	4	3	1	0	5	2	4	0	ur	p	2245	yes	4	3	7	9200
12	24	male	20	5	1	0	3	6	4	2	7	4	1	ur	r	1660	yes	0	3	3	15250
12	24	male	67	7	2	6	4	3	1	0	5	4	1	ur	r	1628	yes	6	4	10	10300
12	24	male	9	6	3	0	7	5	2	1	4	4	1	ur	u	3747	yes	0	7	7	13600
12	24	male	53	4	6	7	2	5	0	1	3	4	1	ur	u	1952	yes	7	2	9	9200
12	24	male	8	4	2	0	3	5	6	7	1	5	0	ur	p	2810	yes	3	5	8	13050
12	24	male	64	1	4	7	0	5	2	6	3	5	1	ur	r	1714	yes	0	5	5	11400
12	24	male	111	1	5	4	0	2	7	6	3	5	1	ur	r	1341	yes	0	2	2	12500
12	24	male	36	0	5	2	4	6	7	1	3	5	1	ur	u	3032	yes	4	6	10	11950
12	24	male	87	6	2	0	4	5	7	3	1	5	1	ur	u	1791	yes	4	5	9	11400
12	24	male	89	1	4	2	5	0	6	3	7	5	1	ur	u	1706	yes	5	0	5	11400
12	24	male	25	0	5	4	1	2	7	6	3	6	1	ur	r	1668	yes	2	7	9	10850
12	24	male	44	0	4	5	2	7	1	3	6	6	1	ur	r	1676	yes	7	1	8	7550
12	24	male	45	0	6	2	4	5	3	1	7	6	1	ur	u	2667	yes	5	3	8	8100
12	24	male	51	7	4	6	5	0	3	1	2	6	1	ur	u	1941	yes	0	3	3	5350
12	24	male	59	4	7	0	2	1	3	5	6	6	1	ur	u	2249	yes	1	3	4	9750
12	24	male	76	6	2	0	1	3	5	4	7	6	1	ur	u	2045	yes	3	5	8	10850
12	24	male	7	7	6	0	4	2	5	3	1	7	1	ur	r	1914	yes	5	3	8	3700
12	24	male	16	3	6	7	2	1	4	5	0	7	1	ur	r	1525	yes	4	5	9	4250
12	24	male	88	1	5	6	4	7	3	2	0	7	1	ur	r	1537	yes	3	2	5	2600
12	24	male	96	2	5	3	7	6	1	4	0	7	1	ur	r	1982	yes	1	4	5	3700
12	24	male	27	2	0	7	1	5	3	6	4	7	1	ur	u	3222	yes	3	6	9	7000
12	24	male	47	0	4	3	7	6	2	1	5	7	1	ur	u	2403	yes	2	1	3	4800
12	24	male	31	4	0	7	6	2	5	3	1	8	1	ur	r	1620	yes	3	1	4	1500
12	24	male	41	3	7	0	5	1	6	2	4	8	1	ur	r	1489	yes	2	4	6	3150
12	24	male	55	5	1	4	6	3	7	2	0	8	1	ur	r	1480	yes	2	0	2	950
12	24	male	62	5	0	3	4	1	6	2	7	8	1	ur	r	3301	yes	2	7	9	4800
12	24	male	91	1	3	6	2	0	7	5	4	8	1	ur	r	1645	yes	5	4	9	3150
12	24	male	97	4	1	2	6	3	7	5	0	8	1	ur	r	1432	yes	5	0	5	950
12	24	male	11	1	2	7	0	4	3	6	5	9	1	ur	r	1756	yes	5	-	5	400
12	24	male	30	6	1	4	3	0	7	5	2	9	1	ur	r	1580	yes	2	-	2	400
12	24	male	40	3	2	0	4	7	5	1	6	9	1	ur	r	1488	yes	6	-	6	400
12	24	male	54	0	3	1	7	6	2	5	4	9	1	ur	r	1398	yes	4	-	4	400
12	24	male	93	4	5	0	3	7	1	2	6	9	1	ur	r	1489	yes	6	-	6	400
12	24	male	98	2	6	7	3	1	5	4	0	9	1	ur	r	1291	yes	0	-	0	400
13	19	female	26	4	5	0	7	2	1	6	3	1	1	ur	r	4879	yes	-	4	4	20200
13	19	female	34	7	6	4	1	0	2	3	5	1	1	ur	r	7758	yes	-	7	7	20200
13	19	female	59	1	2	6	7	4	0	5	3	1	1	ur	r	1116	yes	-	1	1	20200
13	19	female	86	0	6	7	5	1	3	4	2	1	1	ur	r	2325	yes	-	0	0	20200
13	19	female	90	1	6	4	2	7	5	0	3	1	1	ur	u	5181	yes	-	1	1	20200
13	19	female	111	5	7	6	3	4	2	1	0	1	1	ur	u	1505	yes	-	5	5	20200
13	19	female	39	3	6	4	1	2	5	0	7	2	0	ur	p	4157	yes	3	6	9	18000
13	19	female	71	1	0	4	5	7	6	2	3	2	0	ur	p	3548	yes	1	0	1	19100
13	19	female	7	7	6	1	3	5	0	2	4	2	1	ur	u	4228	yes	7	6	13	15800
13	19	female	62	1	2	3	5	4	6	7	0	2	1	ur	u	11208	yes	1	2	3	19100
13	19	female	91	7	2	0	3	4	6	1	5	2	1	ur	u	2671	yes	7	2	9	15800
13	19	female	106	4	1	0	7	2	5	6	3	2	1	ur	u	1751	yes	4	1	5	17450
13	19	female	14	1	3	0	5	6	2	7	4	3	0	ur	p	5964	yes	3	0	3	16900
13	19	female	69	0	1	3	4	5	7	6	2	3	0	ur	p	5699	yes	1	3	4	18550
13	19	female	82	4	2	1	6	0	3	7	5	3	0	ur	p	1536	yes	2	1	3	15800
13	19	female	31	7	2	1	6	0	5	3	4	3	1	ur	r	906	yes	2	1	3	14150
13	19	female	11	4	3	1	7	6	0	2	5	3	1	ur	u	5632	yes	3	1	4	15250
13	19	female	88	0	4	7	5	1	2	3	6	3	1	ur	u	2152	yes	4	7	11	16900
13	19	female	96	6	5	2	7	0	3	4	1	4	0	ur	p	1337	yes	2	7	9	11400
13	19	female	29	0	6	4	3	1	5	2	7	4	1	ur	r	1136	yes	4	3	7	13050
13	19	female	67	1	4	2	6	0	3	5	7	4	1	ur	r	1617	yes	2	6	8	14700
13	19	female	76	1	3	6	5	7	0	2	4	4	1	ur	r	1360	yes	6	5	11	13050
13	19	female	107	4	7	2	0	5	3	6	1	4	1	ur	u	2176	yes	2	0	2	11400
13	19	female	112	6	0	4	1	5	7	2	3	4	1	ur	u	2164	yes	4	1	5	13050
13	19	female	68	4	3	2	6	0	5	1	7	5	0	ur	p	3690	yes	6	0	6	9750
13	19	female	50	5	2	6	4	3	7	0	1	5	1	ur	r	1604	yes	4	3	7	8650
13	19	female	102	6	4	7	5	3	0	2	1	5	1	ur	r	1285	yes	5	3	8	5900
13	19	female	110	6	1	4	0	2	5	3	7	5	1	ur	r	1189	yes	0	2	2	11950
13	19	female	55	4	6	2	5	1	7	0	3	5	1	ur	u	3546	yes	5	1	6	8650
13	19	female	70	7	4	0	3	2	1	5	6	5	1	ur	u	2764	yes	3	2	5	10300
13	19	female	38	7	5	6	4	2	3	1	0	6	1	ur	r	2021	yes	2	3	5	4250
13	19	female	53	6	7	2	1	5	0	4	3	6	1	ur	r	1312	yes	5	0	5	5900
13	19	female	63	7	6	5	3	4	1	0	2	6	1	ur	r	1126	yes	4	1	5	3700
13	19	female	95	4	2	6	5	3	0	1	7	6	1	ur	r	1288	yes	3	0	3	6450
13	19	female	100	7	3	2	4	1	6	0	5	6	1	ur	r	1376	yes	1	6	7	8100
13	19	female	85	5	6	4	3	2	0	1	7	6	1	ur	u	1811	yes	2	0	2	6450
13	19	female	15	0	7	3	2	5	6	1	4	7	1	ur	r	1318	yes	6	1	7	4250
13	19	female	25	5	0	7	6	1	4	3	2	7	1	ur	r	1044	yes	4	3	7	4250
13	19	female	54	0	3	1	2	4	6	5	7	7	1	ur	r	1059	yes	6	5	11	8100
13	19	female	56	1	0	5	4	6	2	7	3	7	1	ur	r	2748	yes	2	7	9	7000
13	19	female	74	6	2	7	4	0	3	5	1	7	1	ur	r	1562	yes	3	5	8	4800
13	19	female	75	5	4	0	3	2	6	1	7	7	1	ur	r	1543	yes	6	1	7	5900
13	19	female	17	1	3	2	5	6	0	4	7	8	1	ur	r	928	yes	4	7	11	4800
13	19	female	73	1	4	2	6	5	7	0	3	8	1	ur	r	1380	yes	0	3	3	2600
13	19	female	77	3	7	1	2	4	6	5	0	8	1	ur	r	1991	yes	5	0	5	950
13	19	female	78	1	7	6	4	2	0	5	3	8	1	ur	r	1355	yes	5	3	8	2600
13	19	female	98	6	3	0	7	5	2	1	4	8	1	ur	r	1583	yes	1	4	5	3150
13	19	female	28	6	0	4	5	2	1	3	7	8	1	ur	u	3194	yes	3	7	10	4800
13	19	female	32	6	2	3	1	0	4	5	7	9	1	ur	r	1357	yes	7	-	7	400
13	19	female	64	5	4	2	6	3	0	7	1	9	1	ur	r	1673	yes	1	-	1	400
13	19	female	65	6	4	3	2	0	5	7	1	9	1	ur	r	2301	yes	1	-	1	400
13	19	female	92	7	1	5	3	4	2	0	6	9	1	ur	r	1333	yes	6	-	6	400
13	19	female	103	1	5	3	4	7	2	6	0	9	1	ur	r	1323	yes	0	-	0	400
13	19	female	109	6	7	2	4	1	0	3	5	9	1	ur	r	1122	yes	5	-	5	400
14	20	female	10	5	0	6	3	2	1	4	7	1	0	ur	p	1945	yes	-	5	5	20200
14	20	female	17	3	4	7	2	6	1	0	5	1	0	ur	p	1564	yes	-	3	3	20200
14	20	female	37	2	4	3	6	7	0	5	1	1	0	ur	p	2185	yes	-	2	2	20200
14	20	female	65	3	2	4	1	6	5	7	0	1	0	ur	p	1786	yes	-	3	3	20200
14	20	female	56	6	2	4	5	7	0	1	3	1	1	ur	r	2319	yes	-	6	6	20200
14	20	female	51	0	3	1	7	5	6	4	2	1	1	ur	u	2004	yes	-	0	0	20200
14	20	female	36	0	5	4	6	1	2	3	7	2	0	ur	p	1438	yes	0	5	5	19650
14	20	female	88	3	2	6	0	1	4	5	7	2	0	ur	p	1796	yes	3	2	5	18000
14	20	female	98	3	4	2	1	5	6	7	0	2	0	ur	p	1320	yes	3	4	7	18000
14	20	female	102	0	1	7	4	5	2	6	3	2	0	ur	p	1342	yes	0	1	1	19650
14	20	female	111	1	7	2	4	0	5	6	3	2	0	ur	p	1645	yes	1	7	8	19100
14	20	female	92	7	3	1	5	4	6	0	2	2	1	ur	r	2740	yes	7	3	10	15800
14	20	female	42	6	2	5	4	1	7	0	3	3	0	ur	p	3401	yes	2	5	7	14700
14	20	female	64	0	1	6	2	4	7	5	3	3	0	ur	p	3532	yes	1	6	7	18550
14	20	female	91	5	1	7	2	0	6	4	3	3	0	ur	p	1420	yes	1	7	8	15800
14	20	female	109	7	3	0	2	5	6	4	1	3	0	ur	p	2264	yes	3	0	3	13600
14	20	female	32	5	2	7	1	4	6	0	3	3	1	ur	r	1686	yes	2	7	9	15250
14	20	female	53	7	5	3	0	4	1	6	2	3	1	ur	r	2071	yes	5	3	8	12500
14	20	female	22	2	4	5	0	1	3	7	6	4	0	ur	p	2461	yes	5	0	5	12500
14	20	female	29	5	0	2	6	3	1	4	7	4	0	ur	p	1315	yes	2	6	8	14700
14	20	female	94	0	4	5	3	6	2	7	1	4	0	ur	p	1876	yes	5	3	8	13600
14	20	female	68	3	4	2	5	1	7	6	0	4	1	ur	r	1515	yes	2	5	7	13600
14	20	female	85	0	6	7	4	5	1	2	3	4	1	ur	r	1740	yes	7	4	11	11400
14	20	female	95	4	7	6	1	3	2	0	5	4	1	ur	u	2341	yes	6	1	7	9200
14	20	female	11	7	1	0	4	2	6	5	3	5	0	ur	p	1487	yes	4	2	6	11400
14	20	female	44	5	4	3	1	7	6	0	2	5	0	ur	p	3408	yes	1	7	8	10850
14	20	female	6	5	2	6	7	4	1	0	3	5	1	ur	r	1721	yes	7	4	11	7000
14	20	female	80	2	7	1	5	0	4	6	3	5	1	ur	r	1874	yes	5	0	5	9750
14	20	female	100	3	6	7	4	0	1	5	2	5	1	ur	r	1134	yes	4	0	4	7000
14	20	female	84	7	5	6	1	2	0	4	3	5	1	ur	u	2047	yes	1	2	3	7550
14	20	female	34	2	0	4	1	7	5	6	3	6	0	ur	p	3565	yes	7	5	12	9750
14	20	female	40	6	4	2	0	5	3	7	1	6	1	ur	r	1587	yes	5	3	8	8100
14	20	female	55	4	7	6	1	2	3	0	5	6	1	ur	r	1583	yes	2	3	5	6450
14	20	female	59	5	3	7	6	2	0	1	4	6	1	ur	r	2165	yes	2	0	2	4800
14	20	female	93	7	1	4	5	6	2	3	0	6	1	ur	r	2018	yes	6	2	8	4800
14	20	female	9	0	3	7	1	4	2	5	6	6	1	ur	u	2993	yes	4	2	6	9200
14	20	female	77	5	2	3	0	7	1	6	4	7	0	ur	p	1725	yes	1	6	7	7000
14	20	female	7	4	0	2	3	6	7	5	1	7	1	ur	r	1570	yes	7	5	12	4800
14	20	female	8	1	2	6	3	5	0	7	4	7	1	ur	r	1670	yes	0	7	7	7550
14	20	female	27	2	1	7	5	0	6	3	4	7	1	ur	r	1670	yes	6	3	9	5350
14	20	female	45	1	0	7	3	2	4	5	6	7	1	ur	r	1567	yes	4	5	9	7550
14	20	female	58	3	6	4	0	5	2	7	1	7	1	ur	r	1581	yes	2	7	9	5900
14	20	female	20	5	6	1	2	3	7	0	4	8	1	ur	r	1855	yes	0	4	4	3150
14	20	female	21	7	2	5	0	3	4	1	6	8	1	ur	r	1680	yes	1	6	7	4250
14	20	female	33	4	0	6	7	1	3	2	5	8	1	ur	r	1449	yes	2	5	7	3700
14	20	female	47	2	5	7	1	6	0	3	4	8	1	ur	r	1393	yes	3	4	7	3150
14	20	female	89	0	4	1	7	2	6	3	5	8	1	ur	r	1491	yes	3	5	8	3700
14	20	female	112	2	3	1	4	5	0	6	7	8	1	ur	r	1209	yes	6	7	13	4800
14	20	female	14	4	5	0	2	6	1	3	7	9	1	ur	r	1837	yes	7	-	7	400
14	20	female	31	1	7	6	0	4	2	3	5	9	1	ur	r	1419	yes	5	-	5	400
14	20	female	39	3	5	7	0	1	4	6	2	9	1	ur	r	1325	yes	2	-	2	400
14	20	female	46	4	3	6	2	5	7	1	0	9	1	ur	r	1275	yes	0	-	0	400
14	20	female	75	1	4	7	5	2	0	3	6	9	1	ur	r	1352	yes	6	-	6	400
14	20	female	81	1	7	5	0	2	4	6	3	9	1	ur	r	1757	yes	3	-	3	400
15	19	female	10	5	6	0	2	7	4	3	1	1	1	ur	r	3840	yes	-	5	5	20200
15	19	female	31	6	4	5	1	7	0	2	3	1	1	ur	r	2759	yes	-	6	6	20200
15	19	female	64	3	5	4	0	7	6	2	1	1	1	ur	r	1749	yes	-	3	3	20200
15	19	female	76	6	4	2	0	5	7	3	1	1	1	ur	r	1639	yes	-	6	6	20200
15	19	female	80	5	1	0	4	6	3	2	7	1	1	ur	r	1915	yes	-	5	5	20200
15	19	female	49	1	6	3	2	0	7	4	5	1	1	ur	u	2309	yes	-	1	1	20200
15	19	female	27	4	3	0	5	1	7	6	2	2	0	ur	p	2059	yes	4	3	7	17450
15	19	female	47	2	5	7	1	6	3	0	4	2	0	ur	p	13324	yes	2	5	7	18550
15	19	female	11	3	4	5	2	0	7	6	1	2	1	ur	r	1875	yes	3	4	7	18000
15	19	female	37	4	5	6	1	3	7	0	2	2	1	ur	r	2492	yes	4	5	9	17450
15	19	female	60	2	4	6	7	0	1	3	5	2	1	ur	r	1602	yes	2	4	6	18550
15	19	female	92	7	4	1	0	5	6	3	2	2	1	ur	u	1880	yes	7	4	11	15800
15	19	female	9	5	1	0	6	2	7	4	3	3	1	ur	r	11154	yes	1	0	1	15800
15	19	female	35	2	1	6	4	5	0	7	3	3	1	ur	r	2388	yes	1	6	7	17450
15	19	female	40	7	0	6	5	1	2	3	4	3	1	ur	r	1717	yes	0	6	6	15250
15	19	female	85	6	1	0	3	2	4	7	5	3	1	ur	u	2593	yes	1	0	1	15250
15	19	female	90	6	3	4	0	7	5	2	1	3	1	ur	u	4733	yes	3	4	7	14150
15	19	female	95	3	4	2	5	1	0	7	6	3	1	ur	u	3101	yes	4	2	6	15250
15	19	female	97	4	7	1	5	6	3	0	2	4	0	ur	p	1794	yes	1	5	6	11950
15	19	female	46	3	4	6	1	2	5	0	7	4	1	ur	r	1687	yes	6	1	7	11400
15	19	female	82	3	1	2	7	4	5	6	0	4	1	ur	r	2231	yes	2	7	9	15250
15	19	female	100	2	1	5	3	7	0	4	6	4	1	ur	r	1479	yes	5	3	8	14150
15	19	female	44	0	6	5	1	4	3	7	2	4	1	ur	u	3207	yes	5	1	6	12500
15	19	female	109	3	2	7	0	5	6	4	1	4	1	ur	u	2005	yes	7	0	7	11950
15	19	female	6	6	1	5	4	3	7	0	2	5	0	ur	p	2731	yes	4	3	7	9200
15	19	female	21	7	6	2	4	3	5	0	1	5	1	ur	r	2401	yes	4	3	7	7550
15	19	female	36	7	2	4	5	3	6	0	1	5	1	ur	r	2175	yes	5	3	8	8100
15	19	female	56	6	5	2	7	1	3	4	0	5	1	ur	r	1700	yes	7	1	8	7000
15	19	female	70	3	6	2	5	0	4	1	7	5	1	ur	r	1607	yes	5	0	5	9200
15	19	female	66	0	7	1	2	3	4	5	6	5	1	ur	u	2304	yes	2	3	5	12500
15	19	female	45	2	6	3	1	4	5	0	7	6	1	ur	r	1788	yes	4	5	9	8650
15	19	female	75	7	2	3	5	6	0	1	4	6	1	ur	r	1705	yes	6	0	6	4800
15	19	female	106	0	6	7	1	4	5	2	3	6	1	ur	r	1660	yes	4	5	9	7550
15	19	female	108	5	4	7	2	3	6	1	0	6	1	ur	r	1565	yes	3	6	9	5900
15	19	female	43	5	1	7	0	3	6	2	4	6	1	ur	u	5513	yes	3	6	9	8650
15	19	female	72	5	0	1	6	4	7	2	3	6	1	ur	u	4263	yes	4	7	11	8650
15	19	female	16	1	2	3	5	0	7	4	6	7	1	ur	r	1815	yes	7	4	11	7000
15	19	female	22	0	4	3	7	6	1	2	5	7	1	ur	r	3857	yes	1	2	3	5350
15	19	female	41	7	5	1	0	6	4	3	2	7	1	ur	r	1684	yes	4	3	7	4250
15	19	female	57	4	6	1	0	5	7	3	2	7	1	ur	r	1501	yes	7	3	10	4250
15	19	female	58	2	1	4	0	7	3	5	6	7	1	ur	r	1544	yes	3	5	8	7550
15	19	female	81	6	3	1	2	5	4	7	0	7	1	ur	u	2378	yes	4	7	11	5350
15	19	female	5	6	4	7	5	0	3	2	1	8	1	ur	r	2009	yes	2	1	3	1500
15	19	female	32	6	0	5	7	3	2	4	1	8	1	ur	r	1621	yes	4	1	5	1500
15	19	female	69	6	7	5	1	0	4	3	2	8	1	ur	r	1546	yes	3	2	5	2050
15	19	female	86	4	0	6	1	3	2	7	5	8	1	ur	r	2454	yes	7	5	12	3700
15	19	female	98	2	4	6	5	0	3	1	7	8	1	ur	r	1398	yes	1	7	8	4800
15	19	female	110	5	3	1	0	2	6	7	4	8	1	ur	r	1365	yes	7	4	11	3150
15	19	female	12	1	3	6	0	5	2	4	7	9	1	ur	r	1759	yes	7	-	7	400
15	19	female	20	1	3	2	7	4	5	6	0	9	1	ur	r	1831	yes	0	-	0	400
15	19	female	30	4	5	6	2	7	3	0	1	9	1	ur	r	1915	yes	1	-	1	400
15	19	female	59	0	4	3	7	6	1	5	2	9	1	ur	r	1402	yes	2	-	2	400
15	19	female	87	5	2	6	3	0	7	4	1	9	1	ur	r	2544	yes	1	-	1	400
15	19	female	93	0	1	2	3	7	5	6	4	9	1	ur	r	1431	yes	4	-	4	400
16	18	female	12	7	1	5	0	3	6	4	2	1	1	ur	r	1799	yes	-	7	7	20200
16	18	female	16	3	0	1	2	5	7	6	4	1	1	ur	r	2027	yes	-	3	3	20200
16	18	female	18	2	1	0	6	7	5	3	4	1	1	ur	r	1699	yes	-	2	2	20200
16	18	female	70	0	4	6	3	5	7	2	1	1	1	ur	r	1781	yes	-	0	0	20200
16	18	female	85	6	5	0	4	2	1	7	3	1	1	ur	r	2273	yes	-	6	6	20200
16	18	female	103	1	0	6	5	3	2	7	4	1	1	ur	u	1909	yes	-	1	1	20200
16	18	female	64	4	7	1	0	2	5	6	3	2	0	ur	p	5149	yes	4	7	11	17450
16	18	female	17	7	6	5	3	0	1	4	2	2	1	ur	r	1521	yes	7	6	13	15800
16	18	female	66	6	7	5	2	1	3	0	4	2	1	ur	r	1700	yes	6	7	13	16350
16	18	female	35	2	5	3	7	1	4	6	0	2	1	ur	u	3674	yes	2	5	7	18550
16	18	female	36	2	7	6	4	0	3	1	5	2	1	ur	u	5322	yes	2	7	9	18550
16	18	female	98	5	1	7	6	2	4	3	0	2	1	ur	u	2421	yes	5	1	6	16900
16	18	female	74	4	5	0	1	2	6	7	3	3	0	ur	p	3068	yes	5	0	5	14150
16	18	female	82	7	1	4	0	5	3	6	2	3	0	ur	p	3724	yes	1	4	5	14700
16	18	female	30	3	4	0	7	1	2	6	5	3	1	ur	r	1746	yes	4	0	4	15250
16	18	female	79	1	5	0	6	2	7	3	4	3	1	ur	r	2355	yes	5	0	5	15800
16	18	female	39	1	3	2	6	4	0	7	5	3	1	ur	u	2072	yes	3	2	5	16900
16	18	female	75	2	1	0	4	3	6	7	5	3	1	ur	u	3131	yes	1	0	1	17450
16	18	female	52	3	0	7	6	4	1	5	2	4	0	ur	p	4542	yes	7	6	13	13050
16	18	female	108	1	4	6	3	7	0	5	2	4	0	ur	p	3448	yes	6	3	9	12500
16	18	female	31	1	7	5	2	3	6	0	4	4	1	ur	r	1500	yes	5	2	7	11400
16	18	female	68	6	2	7	4	0	3	5	1	4	1	ur	r	1793	yes	7	4	11	10300
16	18	female	105	6	0	3	4	1	5	2	7	4	1	ur	r	2077	yes	3	4	7	13600
16	18	female	58	1	0	5	3	6	7	4	2	4	1	ur	u	4670	yes	5	3	8	15250
16	18	female	41	3	0	4	2	6	1	7	5	5	0	ur	p	1917	yes	2	6	8	13050
16	18	female	90	5	1	0	7	6	4	2	3	5	0	ur	p	2832	yes	7	6	13	10850
16	18	female	49	5	2	6	1	3	7	4	0	5	1	ur	r	1607	yes	1	3	4	10300
16	18	female	53	7	4	1	3	6	5	2	0	5	1	ur	r	1842	yes	3	6	9	9750
16	18	female	54	3	7	6	2	5	0	4	1	5	1	ur	r	3257	yes	2	5	7	8100
16	18	female	60	2	3	6	4	0	7	1	5	5	1	ur	r	3539	yes	4	0	4	9750
16	18	female	38	6	0	1	3	4	5	2	7	6	1	ur	r	2174	yes	4	5	9	9750
16	18	female	56	2	1	7	0	5	3	6	4	6	1	ur	r	1725	yes	5	3	8	9200
16	18	female	92	2	1	4	0	3	5	6	7	6	1	ur	r	2010	yes	3	5	8	11950
16	18	female	107	7	5	0	3	1	6	2	4	6	1	ur	r	1624	yes	1	6	7	8650
16	18	female	51	2	6	4	7	5	3	0	1	6	1	ur	u	4194	yes	5	3	8	4250
16	18	female	95	3	7	0	6	1	4	5	2	6	1	ur	u	4423	yes	1	4	5	8100
16	18	female	47	7	2	0	3	4	5	6	1	7	1	ur	r	2259	yes	5	6	11	5350
16	18	female	55	5	4	2	3	7	6	0	1	7	1	ur	r	1418	yes	6	0	6	2050
16	18	female	71	6	3	1	5	0	4	2	7	7	1	ur	r	2011	yes	4	2	6	6450
16	18	female	81	4	1	6	5	3	2	7	0	7	1	ur	r	1884	yes	2	7	9	5350
16	18	female	9	0	1	7	6	2	5	3	4	7	1	ur	u	4095	yes	5	3	8	5350
16	18	female	78	5	4	3	6	0	2	7	1	7	1	ur	u	6959	yes	2	7	9	5900
16	18	female	21	6	2	1	7	3	5	0	4	8	1	ur	r	1905	yes	0	4	4	3150
16	18	female	24	4	0	1	6	7	2	5	3	8	1	ur	r	1519	yes	5	3	8	2600
16	18	female	42	5	3	0	7	4	2	1	6	8	1	ur	r	1269	yes	1	6	7	4250
16	18	female	45	3	6	4	5	2	0	7	1	8	1	ur	r	1446	yes	7	1	8	1500
16	18	female	69	0	4	5	1	3	6	2	7	8	1	ur	r	2308	yes	2	7	9	4800
16	18	female	88	4	1	6	5	3	7	0	2	8	1	ur	r	1647	yes	0	2	2	2050
16	18	female	7	5	3	1	4	7	6	2	0	9	1	ur	r	1570	yes	0	-	0	400
16	18	female	11	4	1	6	5	2	7	0	3	9	1	ur	r	1614	yes	3	-	3	400
16	18	female	32	4	2	0	5	1	3	6	7	9	1	ur	r	1614	yes	7	-	7	400
16	18	female	37	1	5	6	2	3	4	7	0	9	1	ur	r	1589	yes	0	-	0	400
16	18	female	65	5	2	1	3	7	6	4	0	9	1	ur	r	1370	yes	0	-	0	400
16	18	female	96	6	1	7	5	2	4	3	0	9	1	ur	r	1370	yes	0	-	0	400
17	18	female	81	3	7	0	2	1	4	5	6	1	0	ur	p	1724	yes	-	3	3	20200
17	18	female	36	5	7	4	3	6	0	1	2	1	1	ur	r	2532	yes	-	5	5	20200
17	18	female	69	6	3	4	0	1	5	2	7	1	1	ur	r	2378	yes	-	6	6	20200
17	18	female	6	0	6	3	4	2	1	5	7	1	1	ur	u	5140	yes	-	0	0	20200
17	18	female	47	5	6	1	0	3	7	4	2	1	1	ur	u	8020	yes	-	5	5	20200
17	18	female	73	1	4	3	2	7	0	6	5	1	1	ur	u	14095	yes	-	1	1	20200
17	18	female	11	1	2	4	5	6	7	3	0	2	0	ur	p	1825	yes	1	2	3	19100
17	18	female	75	2	4	5	6	1	7	3	0	2	0	ur	p	3700	yes	2	4	6	18550
17	18	female	19	3	7	2	4	5	0	1	6	2	1	ur	r	1544	yes	3	7	10	18000
17	18	female	28	3	4	6	1	0	2	7	5	2	1	ur	r	2269	yes	3	4	7	18000
17	18	female	67	2	4	1	6	5	3	7	0	2	1	ur	r	1751	yes	2	4	6	18550
17	18	female	48	5	4	2	0	1	6	3	7	2	1	ur	u	6086	yes	5	4	9	16900
17	18	female	49	7	6	3	4	5	0	2	1	3	0	ur	p	1746	yes	6	3	9	11950
17	18	female	103	7	4	0	3	6	5	1	2	3	0	ur	p	3866	yes	4	0	4	13050
17	18	female	10	3	4	6	5	2	1	0	7	3	1	ur	r	3152	yes	4	6	10	15250
17	18	female	37	0	4	7	3	6	1	2	5	3	1	ur	r	1835	yes	4	7	11	16900
17	18	female	25	3	2	6	5	4	7	0	1	3	1	ur	u	3932	yes	2	6	8	16350
17	18	female	68	7	4	0	3	2	1	5	6	3	1	ur	u	3888	yes	4	0	4	13050
17	18	female	72	3	6	2	4	5	1	7	0	4	0	ur	p	3316	yes	2	4	6	12500
17	18	female	80	3	0	6	2	7	4	1	5	4	0	ur	p	2447	yes	6	2	8	13600
17	18	female	87	3	4	6	5	2	0	1	7	4	1	ur	r	1886	yes	6	5	11	11400
17	18	female	9	6	5	2	0	7	1	4	3	4	1	ur	u	8707	yes	2	0	2	11400
17	18	female	20	4	6	7	3	5	1	0	2	4	1	ur	u	10243	yes	7	3	10	9200
17	18	female	98	5	4	1	6	0	7	2	3	4	1	ur	u	2244	yes	1	6	7	13050
17	18	female	21	3	4	2	1	6	0	7	5	5	0	ur	p	3039	yes	1	6	7	12500
17	18	female	38	3	6	7	1	0	5	2	4	5	0	ur	p	11823	yes	1	0	1	8650
17	18	female	55	3	0	5	2	7	4	6	1	5	0	ur	p	3438	yes	2	7	9	12500
17	18	female	34	3	5	0	1	4	7	2	6	5	1	ur	r	1495	yes	1	4	5	13050
17	18	female	95	7	2	1	6	0	5	4	3	5	1	ur	r	2174	yes	6	0	6	9200
17	18	female	104	6	5	0	7	4	1	2	3	5	1	ur	r	1586	yes	7	4	11	8100
17	18	female	16	1	7	4	6	0	2	3	5	6	1	ur	r	2302	yes	0	2	2	7550
17	18	female	101	4	3	0	2	7	1	5	6	6	1	ur	r	1793	yes	7	1	8	8650
17	18	female	8	0	7	5	3	6	4	2	1	6	1	ur	u	4077	yes	6	4	10	5900
17	18	female	33	4	5	7	3	0	6	1	2	6	1	ur	u	2635	yes	0	6	6	7000
17	18	female	57	1	4	7	6	0	3	5	2	6	1	ur	u	2374	yes	0	3	3	7550
17	18	female	112	4	6	5	7	3	2	1	0	6	1	ur	u	4311	yes	3	2	5	3700
17	18	female	41	4	7	3	6	1	2	5	0	7	1	ur	r	2608	yes	2	5	7	4250
17	18	female	44	6	1	5	4	2	0	7	3	7	1	ur	r	3404	yes	0	7	7	7000
17	18	female	53	4	6	0	2	7	5	1	3	7	1	ur	r	1503	yes	5	1	6	3700
17	18	female	100	4	0	1	2	7	3	5	6	7	1	ur	r	1779	yes	3	5	8	7550
17	18	female	96	7	5	0	1	2	3	4	6	7	1	ur	u	2315	yes	3	4	7	7000
17	18	female	108	5	7	4	3	2	0	6	1	7	1	ur	u	3775	yes	0	6	6	5350
17	18	female	51	5	4	7	1	2	3	0	6	8	0	ur	p	5161	yes	0	6	6	4250
17	18	female	13	0	2	6	5	4	1	7	3	8	1	ur	r	2556	yes	7	3	10	2600
17	18	female	18	6	4	1	7	0	3	5	2	8	1	ur	r	1491	yes	5	2	7	2050
17	18	female	39	1	6	5	0	3	7	2	4	8	1	ur	r	1506	yes	2	4	6	3150
17	18	female	86	2	0	1	5	4	6	7	3	8	1	ur	r	1724	yes	7	3	10	2600
17	18	female	88	2	5	7	0	4	6	3	1	8	1	ur	r	1615	yes	3	1	4	1500
17	18	female	24	2	7	6	1	0	4	5	3	9	1	ur	r	1503	yes	3	-	3	400
17	18	female	26	7	1	4	6	3	5	0	2	9	1	ur	r	1389	yes	2	-	2	400
17	18	female	35	1	4	5	7	2	0	6	3	9	1	ur	r	2611	yes	3	-	3	400
17	18	female	46	1	7	4	5	3	0	6	2	9	1	ur	r	1470	yes	2	-	2	400
17	18	female	50	2	0	3	1	6	5	4	7	9	1	ur	r	1827	yes	7	-	7	400
17	18	female	58	2	0	7	5	1	4	3	6	9	1	ur	r	1445	yes	6	-	6	400
18	18	female	47	3	6	2	7	1	5	0	4	1	0	ur	p	3760	yes	-	3	3	20200
18	18	female	15	7	0	4	2	3	1	5	6	1	1	ur	r	1504	yes	-	7	7	20200
18	18	female	34	5	2	4	3	6	0	7	1	1	1	ur	r	1518	yes	-	5	5	20200
18	18	female	88	0	7	3	6	2	1	5	4	1	1	ur	r	1357	yes	-	0	0	20200
18	18	female	41	7	0	4	6	1	5	2	3	1	1	ur	u	1964	yes	-	7	7	20200
18	18	female	91	6	4	1	5	3	0	2	7	1	1	ur	u	2292	yes	-	6	6	20200
18	18	female	84	1	5	4	3	0	2	7	6	2	0	ur	p	1570	yes	1	5	6	19100
18	18	female	11	1	7	4	2	5	3	6	0	2	1	ur	r	1722	yes	1	7	8	19100
18	18	female	109	4	1	6	5	7	3	0	2	2	1	ur	r	1454	yes	4	1	5	17450
18	18	female	23	3	5	1	2	6	7	4	0	2	1	ur	u	5175	yes	3	5	8	18000
18	18	female	82	1	7	6	0	3	4	5	2	2	1	ur	u	1673	yes	1	7	8	19100
18	18	female	93	6	7	5	3	0	2	1	4	2	1	ur	u	1590	yes	6	7	13	16350
18	18	female	51	5	2	3	7	0	4	1	6	3	0	ur	p	3551	yes	2	3	5	15250
18	18	female	6	0	1	5	2	4	3	7	6	3	1	ur	r	1915	yes	1	5	6	18550
18	18	female	36	1	3	7	0	6	2	4	5	3	1	ur	r	1431	yes	3	7	10	16900
18	18	female	77	7	5	6	3	2	4	0	1	3	1	ur	u	1638	yes	5	6	11	12500
18	18	female	79	5	7	3	4	1	2	0	6	3	1	ur	u	1809	yes	7	3	10	12500
18	18	female	102	3	1	5	7	2	0	6	4	3	1	ur	u	1633	yes	1	5	6	16900
18	18	female	106	2	5	1	6	0	4	3	7	4	0	ur	p	2236	yes	1	6	7	14150
18	18	female	29	6	3	1	5	7	4	0	2	4	1	ur	r	1694	yes	1	5	6	13050
18	18	female	57	2	1	6	7	0	4	5	3	4	1	ur	r	1305	yes	6	7	13	13600
18	18	female	67	1	5	0	3	2	7	4	6	4	1	ur	r	1468	yes	0	3	3	15250
18	18	female	38	2	5	6	7	0	3	4	1	4	1	ur	u	2308	yes	6	7	13	11400
18	18	female	75	4	6	0	2	7	5	1	3	4	1	ur	u	1589	yes	0	2	2	13050
18	18	female	19	6	1	3	7	2	0	5	4	5	1	ur	r	1524	yes	7	2	9	8650
18	18	female	33	4	1	7	3	0	5	2	6	5	1	ur	r	1499	yes	3	0	3	9750
18	18	female	39	1	5	6	7	3	0	2	4	5	1	ur	r	1466	yes	7	3	10	7550
18	18	female	64	0	5	1	4	6	7	3	2	5	1	ur	r	1440	yes	4	6	10	12500
18	18	female	95	5	1	4	3	0	6	2	7	5	1	ur	r	1471	yes	3	0	3	10850
18	18	female	94	3	4	6	1	0	7	5	2	5	1	ur	u	1738	yes	1	0	1	10300
18	18	female	20	3	1	6	5	0	2	4	7	6	1	ur	r	1415	yes	0	2	2	9200
18	18	female	31	7	0	3	6	5	4	1	2	6	1	ur	r	1407	yes	5	4	9	5900
18	18	female	73	1	3	5	4	6	0	7	2	6	1	ur	r	1514	yes	6	0	6	7000
18	18	female	100	0	2	4	5	1	6	7	3	6	1	ur	r	1523	yes	1	6	7	10850
18	18	female	107	6	3	0	5	4	7	2	1	6	1	ur	r	1333	yes	4	7	11	7550
18	18	female	72	1	6	3	4	7	2	5	0	6	1	ur	u	1515	yes	7	2	9	5900
18	18	female	10	1	0	3	7	2	4	5	6	7	1	ur	r	1763	yes	4	5	9	7550
18	18	female	26	2	5	4	0	7	6	3	1	7	1	ur	r	1659	yes	6	3	9	3700
18	18	female	44	1	6	4	0	7	2	5	3	7	1	ur	r	1532	yes	2	5	7	5900
18	18	female	48	6	1	2	7	3	0	4	5	7	1	ur	r	1321	yes	0	4	4	6450
18	18	female	65	1	5	7	0	4	6	3	2	7	1	ur	r	1380	yes	6	3	9	4250
18	18	female	111	2	3	1	5	7	6	4	0	7	1	ur	r	1300	yes	6	4	10	3700
18	18	female	8	5	1	0	3	6	7	2	4	8	1	ur	r	1709	yes	2	4	6	3150
18	18	female	9	4	6	7	1	5	3	2	0	8	1	ur	r	1954	yes	2	0	2	950
18	18	female	12	2	6	5	3	7	1	4	0	8	1	ur	r	1540	yes	4	0	4	950
18	18	female	14	5	4	6	2	3	1	0	7	8	1	ur	r	1542	yes	0	7	7	4800
18	18	female	50	6	4	7	5	1	3	2	0	8	1	ur	r	1568	yes	2	0	2	950
18	18	female	105	4	5	2	1	3	6	0	7	8	1	ur	r	1490	yes	0	7	7	4800
18	18	female	24	7	2	4	1	6	5	3	0	9	1	ur	r	1388	yes	0	-	0	400
18	18	female	28	6	2	7	3	4	0	5	1	9	1	ur	r	1259	yes	1	-	1	400
18	18	female	46	6	3	2	0	1	7	4	5	9	1	ur	r	1550	yes	5	-	5	400
18	18	female	49	5	7	2	1	3	4	6	0	9	1	ur	r	1244	yes	0	-	0	400
18	18	female	53	6	0	3	5	2	4	7	1	9	1	ur	r	1246	yes	1	-	1	400
18	18	female	76	5	1	3	0	2	6	7	4	9	1	ur	r	1206	yes	4	-	4	400
19	18	female	101	0	6	1	4	5	2	3	7	1	0	ur	p	2052	yes	-	0	0	20200
19	18	female	8	7	3	6	1	0	4	5	2	1	1	ur	r	1708	yes	-	7	7	20200
19	18	female	22	3	7	0	2	6	4	1	5	1	1	ur	r	2065	yes	-	3	3	20200
19	18	female	15	3	1	0	5	6	2	4	7	1	1	ur	u	5018	yes	-	3	3	20200
19	18	female	28	5	4	2	1	6	3	0	7	1	1	ur	u	6954	yes	-	5	5	20200
19	18	female	98	3	0	7	5	2	6	1	4	1	1	ur	u	1876	yes	-	3	3	20200
19	18	female	106	5	1	6	7	4	2	3	0	2	1	ur	r	1298	yes	5	1	6	16900
19	18	female	20	3	1	6	2	4	0	5	7	2	1	ur	u	4155	yes	3	1	4	18000
19	18	female	48	3	6	0	2	7	5	4	1	2	1	ur	u	4134	yes	3	6	9	18000
19	18	female	85	3	4	7	2	5	0	1	6	2	1	ur	u	3561	yes	3	4	7	18000
19	18	female	97	1	2	0	3	4	7	5	6	2	1	ur	u	2696	yes	1	2	3	19100
19	18	female	107	3	6	7	0	2	5	4	1	2	1	ur	u	1936	yes	3	6	9	18000
19	18	female	24	2	0	4	3	5	7	1	6	3	1	ur	r	2451	yes	0	4	4	18000
19	18	female	45	0	4	7	2	5	3	1	6	3	1	ur	r	1970	yes	4	7	11	16900
19	18	female	39	2	3	1	6	5	4	7	0	3	1	ur	u	4389	yes	3	1	4	16350
19	18	female	44	7	2	5	4	3	6	1	0	3	1	ur	u	4198	yes	2	5	7	14150
19	18	female	53	6	0	1	3	4	5	2	7	3	1	ur	u	3514	yes	0	1	1	15800
19	18	female	66	6	5	3	7	2	4	1	0	3	1	ur	u	3269	yes	5	3	8	13050
19	18	female	16	7	1	3	2	6	5	4	0	4	0	ur	p	3196	yes	3	2	5	12500
19	18	female	23	0	7	2	6	1	4	5	3	4	1	ur	r	1769	yes	2	6	8	13600
19	18	female	112	4	5	6	0	3	1	2	7	4	1	ur	r	1644	yes	6	0	6	10300
19	18	female	77	3	2	5	7	6	0	1	4	4	1	ur	u	5925	yes	5	7	12	13050
19	18	female	81	4	2	3	0	6	1	5	7	4	1	ur	u	4280	yes	3	0	3	13600
19	18	female	99	3	5	4	6	1	0	2	7	4	1	ur	u	2451	yes	4	6	10	11950
19	18	female	47	0	6	7	1	2	3	4	5	5	1	ur	r	1815	yes	1	2	3	10300
19	18	female	59	7	1	0	6	5	2	3	4	5	1	ur	r	3810	yes	6	5	11	10300
19	18	female	61	0	6	3	5	2	7	4	1	5	1	ur	r	6222	yes	5	2	7	10300
19	18	female	96	4	5	0	1	6	3	2	7	5	1	ur	r	1246	yes	1	6	7	12500
19	18	female	21	1	7	2	5	4	3	0	6	5	1	ur	u	5003	yes	5	4	9	9750
19	18	female	56	5	1	7	3	4	6	2	0	5	1	ur	u	2516	yes	3	4	7	9200
19	18	female	50	7	6	4	1	0	2	3	5	6	1	ur	r	2338	yes	0	2	2	7550
19	18	female	90	1	0	4	7	5	3	2	6	6	1	ur	r	1557	yes	5	3	8	8100
19	18	female	91	0	1	7	5	2	6	4	3	6	1	ur	r	4052	yes	2	6	8	9200
19	18	female	102	0	7	4	1	3	2	6	5	6	1	ur	r	1514	yes	3	2	5	9200
19	18	female	105	7	5	0	1	3	2	6	4	6	1	ur	r	1311	yes	3	2	5	8650
19	18	female	103	4	1	0	3	2	5	6	7	6	1	ur	u	2161	yes	2	5	7	11950
19	18	female	52	3	7	0	5	4	1	6	2	7	1	ur	r	1738	yes	1	6	7	5900
19	18	female	75	4	7	5	6	2	3	0	1	7	1	ur	r	1661	yes	3	0	3	2050
19	18	female	78	7	3	5	0	1	6	2	4	7	1	ur	r	1519	yes	6	2	8	4800
19	18	female	86	7	1	5	2	6	4	0	3	7	1	ur	r	1436	yes	4	0	4	3150
19	18	female	92	3	0	2	7	5	4	6	1	7	1	ur	r	1294	yes	4	6	10	5350
19	18	female	108	2	4	3	5	1	0	6	7	7	1	ur	r	1115	yes	0	6	6	8650
19	18	female	19	5	3	1	6	2	0	4	7	8	1	ur	r	2501	yes	4	7	11	4800
19	18	female	27	1	6	2	3	4	5	0	7	8	1	ur	r	2454	yes	0	7	7	4800
19	18	female	30	5	2	3	1	0	6	4	7	8	1	ur	r	1769	yes	4	7	11	4800
19	18	female	63	0	4	6	3	2	5	1	7	8	1	ur	r	1494	yes	1	7	8	4800
19	18	female	93	2	1	0	4	6	5	3	7	8	1	ur	r	1380	yes	3	7	10	4800
19	18	female	109	2	5	4	1	6	7	0	3	8	1	ur	r	1120	yes	0	3	3	2600
19	18	female	25	5	1	4	2	6	0	7	3	9	1	ur	r	1821	yes	3	-	3	400
19	18	female	29	5	6	3	0	7	1	4	2	9	1	ur	r	1702	yes	2	-	2	400
19	18	female	35	2	5	6	1	3	0	4	7	9	1	ur	r	1798	yes	7	-	7	400
19	18	female	40	7	6	3	5	2	1	4	0	9	1	ur	r	1698	yes	0	-	0	400
19	18	female	54	2	0	5	3	1	7	6	4	9	1	ur	r	1452	yes	4	-	4	400
19	18	female	100	1	5	7	4	6	0	3	2	9	1	ur	r	1272	yes	2	-	2	400
20	18	female	63	3	7	5	4	0	6	2	1	1	0	ur	p	3920	yes	-	3	3	20200
20	18	female	46	6	7	1	4	3	0	2	5	1	1	ur	r	2994	yes	-	6	6	20200
20	18	female	84	6	3	0	1	2	4	5	7	1	1	ur	r	1501	yes	-	6	6	20200
20	18	female	87	4	3	7	0	2	6	5	1	1	1	ur	r	1577	yes	-	4	4	20200
20	18	female	100	3	4	2	7	0	5	6	1	1	1	ur	u	1468	yes	-	3	3	20200
20	18	female	108	6	0	7	1	4	3	2	5	1	1	ur	u	2840	yes	-	6	6	20200
20	18	female	22	5	2	3	0	6	4	7	1	2	0	ur	p	2292	yes	5	2	7	16900
20	18	female	35	7	5	6	2	3	4	1	0	2	0	ur	p	3364	yes	7	5	12	15800
20	18	female	112	6	7	3	2	1	0	4	5	2	1	ur	r	1620	yes	6	7	13	16350
20	18	female	69	2	1	5	3	4	6	7	0	2	1	ur	u	3505	yes	2	1	3	18550
20	18	female	79	6	2	1	0	4	7	5	3	2	1	ur	u	1778	yes	6	2	8	16350
20	18	female	86	6	7	2	0	3	5	1	4	2	1	ur	u	2021	yes	6	7	13	16350
20	18	female	24	3	0	5	4	7	2	6	1	3	0	ur	p	3682	yes	0	5	5	17450
20	18	female	23	1	6	2	4	0	5	3	7	3	1	ur	r	3549	yes	6	2	8	15250
20	18	female	29	6	0	1	4	2	5	3	7	3	1	ur	r	2836	yes	0	1	1	15800
20	18	female	82	6	5	4	3	0	7	1	2	3	1	ur	r	1896	yes	5	4	9	13050
20	18	female	19	6	7	4	1	5	3	2	0	3	1	ur	u	5083	yes	7	4	11	11950
20	18	female	62	6	4	1	7	5	0	2	3	3	1	ur	u	1543	yes	4	1	5	13600
20	18	female	9	3	5	2	0	1	6	4	7	4	1	ur	r	1927	yes	2	0	2	13050
20	18	female	30	7	0	2	5	4	6	3	1	4	1	ur	r	2148	yes	2	5	7	13600
20	18	female	33	5	0	4	3	1	7	2	6	4	1	ur	r	5212	yes	4	3	7	13600
20	18	female	85	7	3	1	2	4	0	6	5	4	1	ur	r	1429	yes	1	2	3	12500
20	18	female	80	2	7	4	3	0	6	1	5	4	1	ur	u	2795	yes	4	3	7	11400
20	18	female	95	2	4	6	5	1	3	7	0	4	1	ur	u	1693	yes	6	5	11	11950
20	18	female	72	0	7	4	2	1	5	6	3	5	0	ur	p	6014	yes	2	1	3	10850
20	18	female	58	7	6	3	0	4	1	2	5	5	1	ur	r	1611	yes	0	4	4	9200
20	18	female	99	4	0	1	6	2	7	5	3	5	1	ur	r	1310	yes	6	2	8	11950
20	18	female	27	3	4	6	7	0	5	1	2	5	1	ur	u	1565	yes	7	0	7	7000
20	18	female	92	2	5	1	0	7	6	4	3	5	1	ur	u	1829	yes	0	7	7	13600
20	18	female	94	6	7	4	5	3	0	1	2	5	1	ur	u	1759	yes	5	3	8	5900
20	18	female	10	6	7	3	5	2	1	0	4	6	0	ur	p	6737	yes	2	1	3	4800
20	18	female	88	7	4	2	0	5	1	3	6	6	1	ur	r	1488	yes	5	1	6	7550
20	18	female	105	1	0	5	3	7	6	4	2	6	1	ur	r	1611	yes	7	6	13	8650
20	18	female	7	3	2	7	4	5	1	0	6	6	1	ur	u	3379	yes	5	1	6	5900
20	18	female	34	1	7	2	6	0	5	4	3	6	1	ur	u	2729	yes	0	5	5	8650
20	18	female	102	1	5	4	3	0	7	6	2	6	1	ur	u	2874	yes	0	7	7	10300
20	18	female	50	4	0	2	1	5	6	3	7	7	1	ur	r	2500	yes	6	3	9	7000
20	18	female	76	1	2	5	7	0	3	6	4	7	1	ur	r	1557	yes	3	6	9	7000
20	18	female	110	7	1	2	0	6	5	3	4	7	1	ur	r	1450	yes	5	3	8	5350
20	18	female	20	2	3	5	6	4	7	1	0	7	1	ur	u	2098	yes	7	1	8	2050
20	18	female	40	0	4	6	7	1	3	2	5	7	1	ur	u	2148	yes	3	2	5	5350
20	18	female	107	0	3	7	1	2	5	4	6	7	1	ur	u	1419	yes	5	4	9	7000
20	18	female	28	1	4	3	5	0	6	2	7	8	1	ur	r	1797	yes	2	7	9	4800
20	18	female	57	5	0	2	7	6	3	1	4	8	1	ur	r	1464	yes	1	4	5	3150
20	18	female	68	1	5	3	0	4	7	6	2	8	1	ur	r	1622	yes	6	2	8	2050
20	18	female	75	0	4	3	5	2	1	6	7	8	1	ur	r	2305	yes	6	7	13	4800
20	18	female	90	6	7	2	1	5	4	0	3	8	1	ur	r	2143	yes	0	3	3	2600
20	18	female	111	1	3	5	7	6	4	2	0	8	1	ur	r	1123	yes	2	0	2	950
20	18	female	51	7	3	2	5	6	1	0	4	9	1	ur	r	1712	yes	4	-	4	400
20	18	female	53	1	0	3	6	7	2	5	4	9	1	ur	r	1704	yes	4	-	4	400
20	18	female	59	3	2	6	5	7	1	0	4	9	1	ur	r	1299	yes	4	-	4	400
20	18	female	101	2	3	0	7	4	5	6	1	9	1	ur	r	1225	yes	1	-	1	400
20	18	female	21	2	1	7	5	4	0	6	3	9	1	ur	u	1469	yes	3	-	3	400
20	18	female	25	5	1	0	4	6	2	3	7	9	1	ur	u	1635	yes	7	-	7	400
21	18	female	27	1	5	4	2	6	3	7	0	1	0	ur	p	2959	yes	-	1	1	20200
21	18	female	60	3	6	5	2	7	4	1	0	1	0	ur	p	1693	yes	-	3	3	20200
21	18	female	45	2	3	6	4	7	5	1	0	1	1	ur	r	2429	yes	-	2	2	20200
21	18	female	86	5	1	2	6	0	7	3	4	1	1	ur	r	1822	yes	-	5	5	20200
21	18	female	15	7	2	0	1	5	3	6	4	1	1	ur	u	2290	yes	-	7	7	20200
21	18	female	93	7	1	3	6	2	5	4	0	1	1	ur	u	2595	yes	-	7	7	20200
21	18	female	8	2	3	4	5	6	1	0	7	2	0	ur	p	2590	yes	2	3	5	18550
21	18	female	20	1	5	4	0	7	3	2	6	2	0	ur	p	2355	yes	1	5	6	19100
21	18	female	24	4	3	5	1	2	6	7	0	2	0	ur	p	1571	yes	4	3	7	17450
21	18	female	54	0	7	3	2	4	5	1	6	2	0	ur	p	1398	yes	0	7	7	19650
21	18	female	32	5	3	4	7	0	6	2	1	2	1	ur	r	2468	yes	5	3	8	16900
21	18	female	66	5	0	7	3	1	4	2	6	2	1	ur	r	3066	yes	5	0	5	16900
21	18	female	31	0	4	1	2	7	3	5	6	3	1	ur	r	2110	yes	4	1	5	16900
21	18	female	38	1	4	6	2	7	5	0	3	3	1	ur	r	2007	yes	4	6	10	16350
21	18	female	43	2	4	0	6	3	7	5	1	3	1	ur	r	1883	yes	4	0	4	15800
21	18	female	56	3	6	5	2	0	7	4	1	3	1	ur	r	1973	yes	6	5	11	14150
21	18	female	105	1	2	7	6	4	3	5	0	3	1	ur	r	1644	yes	2	7	9	17450
21	18	female	53	7	5	6	0	2	1	3	4	3	1	ur	u	5323	yes	5	6	11	12500
21	18	female	51	7	4	0	2	1	5	3	6	4	0	ur	p	1903	yes	0	2	2	12500
21	18	female	13	5	4	2	6	1	3	0	7	4	1	ur	r	2713	yes	2	6	8	12500
21	18	female	83	0	5	6	3	7	4	2	1	4	1	ur	r	1589	yes	6	3	9	12500
21	18	female	102	3	1	0	6	2	7	5	4	4	1	ur	r	2410	yes	0	6	6	16350
21	18	female	106	4	7	5	6	0	1	3	2	4	1	ur	r	1424	yes	5	6	11	9750
21	18	female	111	5	0	7	6	4	3	2	1	4	1	ur	r	1578	yes	7	6	13	11950
21	18	female	58	6	1	5	2	7	0	3	4	5	1	ur	r	1635	yes	2	7	9	10300
21	18	female	64	6	7	0	5	2	3	4	1	5	1	ur	r	1905	yes	5	2	7	8100
21	18	female	75	7	4	1	3	6	0	5	2	5	1	ur	r	1548	yes	3	6	9	9750
21	18	female	90	5	6	3	4	1	7	2	0	5	1	ur	r	1622	yes	4	1	5	8100
21	18	female	18	6	2	3	0	5	1	7	4	5	1	ur	u	2729	yes	0	5	5	11950
21	18	female	23	5	4	6	3	7	2	1	0	5	1	ur	u	4493	yes	3	7	10	8100
21	18	female	35	3	7	6	5	4	0	2	1	6	0	ur	p	2035	yes	4	0	4	3700
21	18	female	88	6	7	3	1	0	4	5	2	6	0	ur	p	2829	yes	0	4	4	8100
21	18	female	5	0	6	5	4	3	1	2	7	6	1	ur	r	3176	yes	3	1	4	7550
21	18	female	6	4	2	1	5	0	3	6	7	6	1	ur	r	2991	yes	0	3	3	10850
21	18	female	74	0	2	7	4	3	6	5	1	6	1	ur	r	2432	yes	3	6	9	8650
21	18	female	103	1	7	2	0	3	6	5	4	6	1	ur	r	1602	yes	3	6	9	10300
21	18	female	12	0	1	2	5	7	6	3	4	7	1	ur	r	2209	yes	6	3	9	5350
21	18	female	28	4	7	2	0	6	1	5	3	7	1	ur	r	1978	yes	1	5	6	5900
21	18	female	29	2	0	3	5	4	6	7	1	7	1	ur	r	1895	yes	6	7	13	5900
21	18	female	71	2	0	1	7	6	4	3	5	7	1	ur	r	1642	yes	4	3	7	5900
21	18	female	73	4	3	6	7	0	2	1	5	7	1	ur	r	1611	yes	2	1	3	4800
21	18	female	110	4	0	5	3	6	2	7	1	7	1	ur	u	2887	yes	2	7	9	5900
21	18	female	41	7	0	2	3	6	4	1	5	8	1	ur	r	1942	yes	1	5	6	3700
21	18	female	46	3	5	0	1	2	4	7	6	8	1	ur	r	1757	yes	7	6	13	4250
21	18	female	47	2	6	0	5	1	7	4	3	8	1	ur	r	1835	yes	4	3	7	2600
21	18	female	59	4	7	6	5	2	3	1	0	8	1	ur	r	1898	yes	1	0	1	950
21	18	female	78	5	7	4	1	0	2	6	3	8	1	ur	r	1563	yes	6	3	9	2600
21	18	female	85	4	5	7	2	6	3	0	1	8	1	ur	r	1559	yes	0	1	1	1500
21	18	female	7	2	5	7	3	0	4	1	6	9	1	ur	r	3282	yes	6	-	6	400
21	18	female	10	5	2	7	3	0	4	1	6	9	1	ur	r	2099	yes	6	-	6	400
21	18	female	42	7	2	3	5	1	6	4	0	9	1	ur	r	1977	yes	0	-	0	400
21	18	female	49	0	6	3	4	7	2	1	5	9	1	ur	r	2189	yes	5	-	5	400
21	18	female	72	4	6	0	2	5	1	7	3	9	1	ur	r	1463	yes	3	-	3	400
21	18	female	97	3	1	7	6	2	4	0	5	9	1	ur	r	1484	yes	5	-	5	400
22	18	female	37	5	2	7	3	1	6	4	0	1	0	ur	p	1692	yes	-	5	5	20200
22	18	female	61	0	5	7	3	1	4	6	2	1	0	ur	p	1706	yes	-	0	0	20200
22	18	female	86	5	7	1	4	6	0	2	3	1	0	ur	p	1415	yes	-	5	5	20200
22	18	female	41	2	0	4	1	6	3	5	7	1	1	ur	u	1497	yes	-	2	2	20200
22	18	female	48	2	5	7	6	0	4	1	3	1	1	ur	u	1498	yes	-	2	2	20200
22	18	female	52	4	7	1	3	6	5	0	2	1	1	ur	u	1751	yes	-	4	4	20200
22	18	female	63	4	1	7	0	2	6	5	3	2	0	ur	p	1752	yes	4	1	5	17450
22	18	female	85	7	4	6	0	1	5	2	3	2	1	ur	r	1256	yes	7	4	11	15800
22	18	female	23	1	0	2	5	6	3	4	7	2	1	ur	u	1652	yes	1	0	1	19100
22	18	female	32	1	6	2	4	3	5	0	7	2	1	ur	u	1378	yes	1	6	7	19100
22	18	female	51	1	7	3	0	6	5	4	2	2	1	ur	u	1730	yes	1	7	8	19100
22	18	female	110	6	2	0	4	3	7	1	5	2	1	ur	u	1844	yes	6	2	8	16350
22	18	female	9	3	2	0	6	4	1	5	7	3	0	ur	p	2111	yes	2	0	2	16350
22	18	female	47	6	1	2	3	7	4	0	5	3	0	ur	p	1610	yes	1	2	3	15250
22	18	female	39	7	4	3	5	2	1	6	0	3	1	ur	r	1561	yes	4	3	7	13050
22	18	female	81	0	1	2	5	7	3	4	6	3	1	ur	u	1564	yes	1	2	3	18550
22	18	female	87	5	3	0	4	6	1	7	2	3	1	ur	u	1304	yes	3	0	3	14700
22	18	female	91	5	2	7	3	6	0	4	1	3	1	ur	u	1379	yes	2	7	9	15250
22	18	female	29	7	6	4	3	1	0	5	2	4	1	ur	r	1619	yes	4	3	7	9200
22	18	female	68	4	6	7	2	5	0	1	3	4	1	ur	r	1447	yes	7	2	9	9200
22	18	female	56	6	3	0	7	5	2	1	4	4	1	ur	u	2196	yes	0	7	7	13600
22	18	female	60	7	2	6	4	3	1	0	5	4	1	ur	u	1412	yes	6	4	10	10300
22	18	female	72	1	2	7	6	0	4	3	5	4	1	ur	u	1556	yes	7	6	13	13050
22	18	female	90	5	1	0	3	6	4	2	7	4	1	ur	u	1253	yes	0	3	3	15250
22	18	female	24	6	2	0	4	5	7	3	1	5	0	ur	p	2088	yes	4	5	9	11400
22	18	female	36	0	5	2	4	6	7	1	3	5	0	ur	p	1666	yes	4	6	10	11950
22	18	female	74	1	5	4	0	2	7	6	3	5	0	ur	p	1313	yes	0	2	2	12500
22	18	female	101	4	2	0	3	5	6	7	1	5	0	ur	p	1420	yes	3	5	8	13050
22	18	female	13	1	4	7	0	5	2	6	3	5	1	ur	u	1743	yes	0	5	5	11400
22	18	female	26	1	4	2	5	0	6	3	7	5	1	ur	u	1948	yes	5	0	5	11400
22	18	female	111	6	2	0	1	3	5	4	7	6	0	ur	p	1211	yes	3	5	8	10850
22	18	female	30	7	4	6	5	0	3	1	2	6	1	ur	r	1575	yes	0	3	3	5350
22	18	female	7	4	7	0	2	1	3	5	6	6	1	ur	u	2034	yes	1	3	4	9750
22	18	female	20	0	5	4	1	2	7	6	3	6	1	ur	u	2196	yes	2	7	9	10850
22	18	female	28	0	6	2	4	5	3	1	7	6	1	ur	u	1512	yes	5	3	8	8100
22	18	female	53	0	4	5	2	7	1	3	6	6	1	ur	u	1691	yes	7	1	8	7550
22	18	female	67	3	6	7	2	1	4	5	0	7	1	ur	r	1525	yes	4	5	9	4250
22	18	female	38	1	5	6	4	7	3	2	0	7	1	ur	u	1490	yes	3	2	5	2600
22	18	female	49	7	6	0	4	2	5	3	1	7	1	ur	u	1530	yes	5	3	8	3700
22	18	female	50	2	5	3	7	6	1	4	0	7	1	ur	u	1425	yes	1	4	5	3700
22	18	female	103	0	4	3	7	6	2	1	5	7	1	ur	u	1279	yes	2	1	3	4800
22	18	female	106	2	0	7	1	5	3	6	4	7	1	ur	u	1398	yes	3	6	9	7000
22	18	female	17	1	3	6	2	0	7	5	4	8	1	ur	r	1694	yes	5	4	9	3150
22	18	female	57	3	7	0	5	1	6	2	4	8	1	ur	r	1408	yes	2	4	6	3150
22	18	female	82	5	1	4	6	3	7	2	0	8	1	ur	r	1314	yes	2	0	2	950
22	18	female	102	4	1	2	6	3	7	5	0	8	1	ur	r	1750	yes	5	0	5	950
22	18	female	43	4	0	7	6	2	5	3	1	8	1	ur	u	1341	yes	3	1	4	1500
22	18	female	62	5	0	3	4	1	6	2	7	8	1	ur	u	1440	yes	2	7	9	4800
22	18	female	10	6	1	4	3	0	7	5	2	9	1	ur	r	1893	yes	2	-	2	400
22	18	female	18	3	2	0	4	7	5	1	6	9	1	ur	r	1563	yes	6	-	6	400
22	18	female	31	4	5	0	3	7	1	2	6	9	1	ur	r	1477	yes	6	-	6	400
22	18	female	35	0	3	1	7	6	2	5	4	9	1	ur	u	1725	yes	4	-	4	400
22	18	female	80	2	6	7	3	1	5	4	0	9	1	ur	u	1485	yes	0	-	0	400
22	18	female	89	1	2	7	0	4	3	6	5	9	1	ur	u	1144	yes	5	-	5	400
23	18	female	12	5	7	6	3	4	2	1	0	1	1	ur	r	2775	yes	-	5	5	20200
23	18	female	49	4	5	0	7	2	1	6	3	1	1	ur	r	3660	yes	-	4	4	20200
23	18	female	47	0	6	7	5	1	3	4	2	1	1	ur	u	4736	yes	-	0	0	20200
23	18	female	48	1	6	4	2	7	5	0	3	1	1	ur	u	3864	yes	-	1	1	20200
23	18	female	51	7	6	4	1	0	2	3	5	1	1	ur	u	3245	yes	-	7	7	20200
23	18	female	52	1	2	6	7	4	0	5	3	1	1	ur	u	3852	yes	-	1	1	20200
23	18	female	93	1	2	3	5	4	6	7	0	2	0	ur	p	3223	yes	1	2	3	19100
23	18	female	103	7	6	1	3	5	0	2	4	2	0	ur	p	4555	yes	7	6	13	15800
23	18	female	30	4	1	0	7	2	5	6	3	2	1	ur	r	2262	yes	4	1	5	17450
23	18	female	31	1	0	4	5	7	6	2	3	2	1	ur	r	3333	yes	1	0	1	19100
23	18	female	19	7	2	0	3	4	6	1	5	2	1	ur	u	4110	yes	7	2	9	15800
23	18	female	81	3	6	4	1	2	5	0	7	2	1	ur	u	2828	yes	3	6	9	18000
23	18	female	20	0	1	3	4	5	7	6	2	3	1	ur	r	1953	yes	1	3	4	18550
23	18	female	68	1	3	0	5	6	2	7	4	3	1	ur	r	5003	yes	3	0	3	16900
23	18	female	75	0	4	7	5	1	2	3	6	3	1	ur	r	4501	yes	4	7	11	16900
23	18	female	24	4	2	1	6	0	3	7	5	3	1	ur	u	3011	yes	2	1	3	15800
23	18	female	64	4	3	1	7	6	0	2	5	3	1	ur	u	3546	yes	3	1	4	15250
23	18	female	89	7	2	1	6	0	5	3	4	3	1	ur	u	2670	yes	2	1	3	14150
23	18	female	61	4	7	2	0	5	3	6	1	4	1	ur	r	2162	yes	2	0	2	11400
23	18	female	82	6	5	2	7	0	3	4	1	4	1	ur	r	2642	yes	2	7	9	11400
23	18	female	42	6	0	4	1	5	7	2	3	4	1	ur	u	2081	yes	4	1	5	13050
23	18	female	43	0	6	4	3	1	5	2	7	4	1	ur	u	4625	yes	4	3	7	13050
23	18	female	73	1	4	2	6	0	3	5	7	4	1	ur	u	2290	yes	2	6	8	14700
23	18	female	90	1	3	6	5	7	0	2	4	4	1	ur	u	2925	yes	6	5	11	13050
23	18	female	38	6	1	4	0	2	5	3	7	5	0	ur	p	4351	yes	0	2	2	11950
23	18	female	27	4	6	2	5	1	7	0	3	5	1	ur	r	2260	yes	5	1	6	8650
23	18	female	50	4	3	2	6	0	5	1	7	5	1	ur	r	2474	yes	6	0	6	9750
23	18	female	108	6	4	7	5	3	0	2	1	5	1	ur	r	1886	yes	5	3	8	5900
23	18	female	109	5	2	6	4	3	7	0	1	5	1	ur	r	2559	yes	4	3	7	8650
23	18	female	110	7	4	0	3	2	1	5	6	5	1	ur	u	2143	yes	3	2	5	10300
23	18	female	11	4	2	6	5	3	0	1	7	6	1	ur	r	3114	yes	3	0	3	6450
23	18	female	21	6	7	2	1	5	0	4	3	6	1	ur	r	1866	yes	5	0	5	5900
23	18	female	96	7	5	6	4	2	3	1	0	6	1	ur	r	1919	yes	2	3	5	4250
23	18	female	16	7	3	2	4	1	6	0	5	6	1	ur	u	2600	yes	1	6	7	8100
23	18	female	53	7	6	5	3	4	1	0	2	6	1	ur	u	2558	yes	4	1	5	3700
23	18	female	87	5	6	4	3	2	0	1	7	6	1	ur	u	2299	yes	2	0	2	6450
23	18	female	26	0	7	3	2	5	6	1	4	7	1	ur	r	1949	yes	6	1	7	4250
23	18	female	54	5	4	0	3	2	6	1	7	7	1	ur	r	2090	yes	6	1	7	5900
23	18	female	59	0	3	1	2	4	6	5	7	7	1	ur	r	1902	yes	6	5	11	8100
23	18	female	78	6	2	7	4	0	3	5	1	7	1	ur	r	1992	yes	3	5	8	4800
23	18	female	85	1	0	5	4	6	2	7	3	7	1	ur	r	2052	yes	2	7	9	7000
23	18	female	101	5	0	7	6	1	4	3	2	7	1	ur	r	2263	yes	4	3	7	4250
23	18	female	44	1	3	2	5	6	0	4	7	8	1	ur	r	2300	yes	4	7	11	4800
23	18	female	71	3	7	1	2	4	6	5	0	8	1	ur	r	1948	yes	5	0	5	950
23	18	female	86	1	4	2	6	5	7	0	3	8	1	ur	r	2041	yes	0	3	3	2600
23	18	female	95	6	0	4	5	2	1	3	7	8	1	ur	r	1939	yes	3	7	10	4800
23	18	female	107	1	7	6	4	2	0	5	3	8	1	ur	r	1760	yes	5	3	8	2600
23	18	female	39	6	3	0	7	5	2	1	4	8	1	ur	u	2708	yes	1	4	5	3150
23	18	female	34	6	2	3	1	0	4	5	7	9	1	ur	r	2140	yes	7	-	7	400
23	18	female	45	6	4	3	2	0	5	7	1	9	1	ur	r	1982	yes	1	-	1	400
23	18	female	58	5	4	2	6	3	0	7	1	9	1	ur	r	1843	yes	1	-	1	400
23	18	female	77	1	5	3	4	7	2	6	0	9	1	ur	r	1727	yes	0	-	0	400
23	18	female	99	6	7	2	4	1	0	3	5	9	1	ur	r	1964	yes	5	-	5	400
23	18	female	100	7	1	5	3	4	2	0	6	9	1	ur	r	2084	yes	6	-	6	400
24	20	male	15	5	0	6	3	2	1	4	7	1	1	ur	r	7168	yes	-	5	5	20200
24	20	male	63	3	4	7	2	6	1	0	5	1	1	ur	r	1518	yes	-	3	3	20200
24	20	male	8	0	3	1	7	5	6	4	2	1	1	ur	u	3879	yes	-	0	0	20200
24	20	male	11	6	2	4	5	7	0	1	3	1	1	ur	u	2217	yes	-	6	6	20200
24	20	male	38	3	2	4	1	6	5	7	0	1	1	ur	u	6921	yes	-	3	3	20200
24	20	male	107	2	4	3	6	7	0	5	1	1	1	ur	u	3631	yes	-	2	2	20200
24	20	male	79	0	1	7	4	5	2	6	3	2	1	ur	r	2047	yes	0	1	1	19650
24	20	male	32	7	3	1	5	4	6	0	2	2	1	ur	u	2329	yes	7	3	10	15800
24	20	male	44	3	4	2	1	5	6	7	0	2	1	ur	u	9833	yes	3	4	7	18000
24	20	male	68	1	7	2	4	0	5	6	3	2	1	ur	u	2527	yes	1	7	8	19100
24	20	male	105	0	5	4	6	1	2	3	7	2	1	ur	u	1807	yes	0	5	5	19650
24	20	male	110	3	2	6	0	1	4	5	7	2	1	ur	u	4721	yes	3	2	5	18000
24	20	male	26	6	2	5	4	1	7	0	3	3	0	ur	p	7131	yes	2	5	7	14700
24	20	male	67	7	5	3	0	4	1	6	2	3	0	ur	p	6748	yes	5	3	8	12500
24	20	male	22	0	1	6	2	4	7	5	3	3	1	ur	r	3367	yes	1	6	7	18550
24	20	male	106	5	2	7	1	4	6	0	3	3	1	ur	r	1595	yes	2	7	9	15250
24	20	male	12	7	3	0	2	5	6	4	1	3	1	ur	u	4539	yes	3	0	3	13600
24	20	male	93	5	1	7	2	0	6	4	3	3	1	ur	u	6419	yes	1	7	8	15800
24	20	male	56	4	7	6	1	3	2	0	5	4	0	ur	p	3338	yes	6	1	7	9200
24	20	male	89	0	6	7	4	5	1	2	3	4	0	ur	p	9549	yes	7	4	11	11400
24	20	male	23	2	4	5	0	1	3	7	6	4	1	ur	r	1345	yes	5	0	5	12500
24	20	male	54	0	4	5	3	6	2	7	1	4	1	ur	r	1759	yes	5	3	8	13600
24	20	male	82	5	0	2	6	3	1	4	7	4	1	ur	u	1875	yes	2	6	8	14700
24	20	male	83	3	4	2	5	1	7	6	0	4	1	ur	u	5214	yes	2	5	7	13600
24	20	male	28	5	2	6	7	4	1	0	3	5	1	ur	r	3039	yes	7	4	11	7000
24	20	male	42	3	6	7	4	0	1	5	2	5	1	ur	r	1607	yes	4	0	4	7000
24	20	male	98	2	7	1	5	0	4	6	3	5	1	ur	r	3903	yes	5	0	5	9750
24	20	male	21	5	4	3	1	7	6	0	2	5	1	ur	u	1796	yes	1	7	8	10850
24	20	male	33	7	1	0	4	2	6	5	3	5	1	ur	u	6424	yes	4	2	6	11400
24	20	male	109	7	5	6	1	2	0	4	3	5	1	ur	u	8936	yes	1	2	3	7550
24	20	male	29	7	1	4	5	6	2	3	0	6	1	ur	r	3014	yes	6	2	8	4800
24	20	male	46	4	7	6	1	2	3	0	5	6	1	ur	r	7107	yes	2	3	5	6450
24	20	male	48	5	3	7	6	2	0	1	4	6	1	ur	r	1596	yes	2	0	2	4800
24	20	male	69	2	0	4	1	7	5	6	3	6	1	ur	r	6199	yes	7	5	12	9750
24	20	male	97	6	4	2	0	5	3	7	1	6	1	ur	r	3313	yes	5	3	8	8100
24	20	male	7	0	3	7	1	4	2	5	6	6	1	ur	u	2821	yes	4	2	6	9200
24	20	male	6	4	0	2	3	6	7	5	1	7	1	ur	r	1929	yes	7	5	12	4800
24	20	male	35	2	1	7	5	0	6	3	4	7	1	ur	r	1615	yes	6	3	9	5350
24	20	male	64	3	6	4	0	5	2	7	1	7	1	ur	r	1553	yes	2	7	9	5900
24	20	male	58	1	0	7	3	2	4	5	6	7	1	ur	u	10080	yes	4	5	9	7550
24	20	male	90	1	2	6	3	5	0	7	4	7	1	ur	u	3296	yes	0	7	7	7550
24	20	male	99	5	2	3	0	7	1	6	4	7	1	ur	u	4764	yes	1	6	7	7000
24	20	male	101	7	2	5	0	3	4	1	6	8	0	ur	p	5899	yes	1	6	7	4250
24	20	male	45	0	4	1	7	2	6	3	5	8	1	ur	r	1870	yes	3	5	8	3700
24	20	male	49	2	5	7	1	6	0	3	4	8	1	ur	r	1699	yes	3	4	7	3150
24	20	male	87	4	0	6	7	1	3	2	5	8	1	ur	r	1497	yes	2	5	7	3700
24	20	male	94	2	3	1	4	5	0	6	7	8	1	ur	r	1668	yes	6	7	13	4800
24	20	male	104	5	6	1	2	3	7	0	4	8	1	ur	r	1461	yes	0	4	4	3150
24	20	male	9	1	7	6	0	4	2	3	5	9	1	ur	r	2919	yes	5	-	5	400
24	20	male	10	1	7	5	0	2	4	6	3	9	1	ur	r	1635	yes	3	-	3	400
24	20	male	30	1	4	7	5	2	0	3	6	9	1	ur	r	3076	yes	6	-	6	400
24	20	male	66	3	5	7	0	1	4	6	2	9	1	ur	r	2270	yes	2	-	2	400
24	20	male	71	4	3	6	2	5	7	1	0	9	1	ur	r	1604	yes	0	-	0	400
24	20	male	108	4	5	0	2	6	1	3	7	9	1	ur	r	1337	yes	7	-	7	400
